"Time (s)","Linear Acceleration x (m/s^2)","Linear Acceleration y (m/s^2)","Linear Acceleration z (m/s^2)"
3.025162000E-3,6.486260891E-2,-3.652191162E-2,7.715034485E-2
8.119850000E-3,1.263453960E-1,7.888793945E-2,-1.530447006E-1
1.611020100E-2,1.830649376E-1,1.078400612E-1,-2.681093216E-1
2.410059200E-2,2.732537389E-1,1.318173409E-1,-2.585105896E-1
3.209227100E-2,3.201743960E-1,1.126203537E-1,-1.578350067E-1
4.008274000E-2,3.286484480E-1,1.077761650E-1,-3.794670105E-2
4.806777900E-2,3.273977637E-1,1.029481888E-1,6.282329559E-2
5.605766200E-2,3.021019101E-1,6.945610046E-2,1.540126801E-1
6.404676400E-2,2.146183252E-1,2.648496628E-2,2.260169983E-1
7.203891200E-2,8.736658096E-2,-3.508710861E-2,1.673507690E-1
8.003563100E-2,-2.328282595E-2,-5.922555923E-2,7.594108582E-2
8.803727100E-2,-8.952581882E-2,-6.073379517E-2,4.789161682E-2
9.603652900E-2,-8.136764169E-2,-5.880451202E-2,4.963302612E-2
1.040339900E-1,-5.043825507E-2,-8.207798004E-2,8.582305908E-2
1.120219200E-1,5.241891742E-2,-7.757663727E-2,1.322393417E-1
1.200080530E-1,1.413264275E-1,-6.854629517E-2,9.262943268E-2
1.279950060E-1,2.114903927E-1,-4.060268402E-2,5.794811249E-2
1.359818420E-1,2.724216878E-1,-3.074645996E-3,-3.900337219E-2
1.439687560E-1,3.000174165E-1,1.131868362E-2,-1.077795029E-1
1.519548890E-1,3.193748891E-1,-1.112127304E-2,-1.153907776E-1
1.599417250E-1,2.834464908E-1,-8.486795425E-2,-1.863126755E-1
1.679277400E-1,2.401883602E-1,-8.915138245E-2,-3.164815903E-1
1.759154350E-1,2.025091052E-1,-9.118652344E-2,-4.386520386E-1
1.839044590E-1,1.560361087E-1,-1.054267883E-1,-4.617729187E-1
1.918910210E-1,1.250263155E-1,-1.320624352E-1,-4.336080551E-1
1.998820760E-1,1.517952085E-1,-1.480059624E-1,-4.397106171E-1
2.078704350E-1,1.629445255E-1,-1.444530487E-1,-4.076452255E-1
2.158578570E-1,1.911330819E-1,-1.271219254E-1,-2.218255997E-1
2.238443810E-1,2.275665104E-1,-1.350126266E-1,-6.322860718E-3
2.318306310E-1,2.725327909E-1,-1.593298912E-1,2.250070572E-1
2.398136780E-1,3.168640435E-1,-1.232681274E-1,3.187742233E-1
2.477999280E-1,2.898096442E-1,-1.418757439E-1,3.276929855E-1
2.557869980E-1,2.153153419E-1,-1.763057709E-1,2.561769485E-1
2.637787560E-1,1.658183336E-1,-1.583528519E-1,1.513023376E-1
2.717650060E-1,8.865121007E-2,-1.644740105E-1,1.774787903E-2
2.797521540E-1,-9.154766798E-3,-2.052063942E-1,-3.184890747E-2
2.877354350E-1,-6.269508600E-2,-2.314033508E-1,1.894474030E-2
2.957221540E-1,-6.261426210E-2,-1.905641556E-1,1.032295227E-1
3.037103960E-1,-4.200652242E-2,-1.543827057E-1,1.299085617E-1
3.117011390E-1,-1.692205667E-2,-1.420044899E-1,1.517248154E-1
3.196909430E-1,3.539001942E-2,-1.486554146E-1,8.733177185E-2
3.276775840E-1,6.764847040E-2,-1.024332047E-1,1.138200760E-1
3.356696150E-1,7.623362541E-2,-7.042121887E-2,1.018886566E-1
3.436605530E-1,7.122266293E-2,-5.738735199E-2,4.193401337E-2
3.516470370E-1,8.182093501E-2,-5.348539352E-2,-3.272914886E-2
3.596350840E-1,1.221337914E-1,-2.974700928E-2,-1.844882965E-1
3.676222320E-1,1.969908774E-1,3.794765472E-2,-2.698154449E-1
3.756080140E-1,2.674636543E-1,6.350803375E-2,-2.552309036E-1
3.835954350E-1,2.721005082E-1,5.134391785E-2,-1.069803238E-1
3.915824280E-1,3.071165681E-1,4.382896423E-2,-3.049373627E-2
3.995643810E-1,2.853826284E-1,-2.070713043E-2,-6.922054291E-2
4.075450060E-1,2.543037236E-1,-4.679250717E-2,-5.055809021E-2
4.155284040E-1,2.466020435E-1,-3.873443604E-2,-3.227043152E-2
4.235082480E-1,2.041238099E-1,-2.604007721E-2,-3.297519684E-2
4.314908650E-1,1.220294535E-1,3.089904785E-4,-6.188678741E-2
4.394744590E-1,1.039513946E-2,2.103281021E-2,-1.763992310E-1
4.474596540E-1,-3.179550171E-2,-2.611398697E-2,-1.849517822E-1
4.554440290E-1,-3.235504031E-2,-6.861925125E-2,-1.598520279E-1
4.634279750E-1,-6.194904447E-3,-8.740234375E-2,-1.010351181E-1
4.714158260E-1,6.670315564E-2,-4.959726334E-2,6.372451782E-2
4.794009040E-1,7.329641283E-2,-4.062223434E-2,1.040401459E-1
4.873873890E-1,1.102135032E-1,-6.455469131E-2,8.167743683E-2
4.953675060E-1,1.580943018E-1,-4.966211319E-2,5.416584015E-2
5.033508260E-1,1.785129905E-1,-2.889633179E-2,6.778717041E-3
5.113368030E-1,1.997876763E-1,-3.072071075E-2,-7.501125336E-2
5.193202010E-1,1.924183220E-1,-1.685857773E-2,-1.528549194E-1
5.273046930E-1,1.286450922E-1,-4.910326004E-2,-2.126951218E-1
5.352893810E-1,8.931353688E-3,-7.463932037E-2,-2.258806229E-1
5.432735600E-1,-8.679755777E-2,-1.466360092E-1,-2.207889557E-1
5.512593030E-1,-1.494803727E-1,-1.744089127E-1,-1.397533417E-1
5.592419590E-1,-1.012359783E-1,-1.487474442E-1,-1.788721085E-1
5.672255140E-1,-1.414426416E-2,-7.470417023E-2,-1.799468994E-1
5.752093030E-1,3.925853968E-2,-6.214427948E-2,-2.005987167E-1
5.831927010E-1,9.044189751E-2,-2.624559402E-2,-1.393842697E-1
5.911804350E-1,1.148430705E-1,-1.010684967E-1,-1.687088013E-1
5.991662560E-1,6.118834019E-2,-2.004537582E-1,-1.353406906E-1
6.071546150E-1,-7.171794772E-3,-2.326860428E-1,-5.411434174E-2
6.151417250E-1,-1.224273741E-1,-3.138523102E-1,-1.050853729E-2
6.231256310E-1,-1.905921251E-1,-3.477993011E-1,-1.627788544E-1
6.311132870E-1,-1.413432360E-1,-3.057575226E-1,-2.810993195E-1
6.391046540E-1,1.721795499E-1,-1.758255959E-1,-7.643260956E-1
6.470927400E-1,1.964341402E-1,-2.743196487E-2,-4.761514664E-1
6.550774670E-1,2.221304476E-1,8.660697937E-2,-3.263025284E-1
6.630693030E-1,2.525749803E-1,6.115674973E-2,-3.723726273E-1
6.710573100E-1,3.084644675E-1,6.994247437E-3,-3.322105408E-1
6.790457090E-1,3.285883963E-1,-2.264785767E-2,-2.061529160E-1
6.870342250E-1,3.342083097E-1,-6.172037125E-2,-1.310157776E-2
6.950237560E-1,3.214342892E-1,-8.227968216E-2,1.468381882E-1
7.030199280E-1,2.998349071E-1,-8.464336395E-2,2.690668106E-1
7.110100060E-1,3.262346685E-1,-5.401229858E-2,3.245973587E-1
7.189975450E-1,3.478844762E-1,-3.798675537E-2,4.042358398E-1
7.269830140E-1,3.316254318E-1,-4.079008102E-2,4.884920120E-1
7.349668810E-1,2.836000919E-1,-5.806350708E-2,5.776004791E-1
7.429479750E-1,2.232784331E-1,-4.266405106E-2,6.145219803E-1
7.509332090E-1,1.451322585E-1,-2.434110641E-2,5.759172440E-1
7.589189900E-1,4.788915813E-2,9.937286377E-4,5.962791443E-1
7.669046150E-1,-1.636456698E-2,-9.539604187E-3,6.371726990E-1
7.748931310E-1,-3.802067041E-2,-3.739833832E-3,6.940851212E-1
7.828826620E-1,-2.798393369E-3,4.153156281E-2,6.956529617E-1
7.908705530E-1,5.812558532E-2,4.841804504E-2,6.234207153E-1
7.988571540E-1,9.593378007E-2,5.393362045E-2,4.945230484E-1
8.068401230E-1,1.256029606E-1,5.432462692E-2,3.083486557E-1
8.148276620E-1,9.903174639E-2,7.438039780E-2,1.266593933E-1
8.228155140E-1,3.563508391E-2,5.288982391E-2,2.065944672E-2
8.308003570E-1,-2.651829273E-2,1.862430573E-2,2.863216400E-2
8.387867640E-1,-3.972863406E-2,-1.003408432E-2,1.223068237E-1
8.467634820E-1,-5.632891133E-2,-2.927780151E-2,1.681814194E-1
8.547379350E-1,-5.815832317E-2,-3.924274445E-2,1.328372955E-1
8.627177400E-1,-6.983531266E-2,-3.038692474E-2,9.770584106E-2
8.706986390E-1,-5.830824748E-2,-3.202390671E-2,1.349573135E-1
8.786793420E-1,-8.053586632E-2,-4.878711700E-2,1.391630173E-1
8.866562170E-1,-7.500394434E-2,-7.138776779E-2,9.134006500E-2
8.946323100E-1,-7.129442692E-2,-1.038126945E-1,7.242870331E-2
9.026067640E-1,-1.077770740E-1,-1.410984993E-1,1.254167557E-1
9.105831700E-1,-1.405836642E-1,-2.072196007E-1,2.167949677E-1
9.185614120E-1,-1.582854688E-1,-2.537994385E-1,2.840042114E-1
9.265401230E-1,-1.698209941E-1,-2.662916183E-1,3.029880524E-1
9.345186780E-1,-1.744713187E-1,-2.691254616E-1,2.931842804E-1
9.425001230E-1,-1.395366341E-1,-2.331647873E-1,1.873235703E-1
9.504833650E-1,-1.085455716E-1,-1.632628441E-1,1.338853836E-1
9.584657090E-1,-1.093061864E-1,-1.292452812E-1,3.776454926E-2
9.664461390E-1,-1.113844514E-1,-1.293358803E-1,-1.488876343E-2
9.744258260E-1,-9.550108761E-2,-1.010675430E-1,-4.336261749E-2
9.824087170E-1,-8.065028489E-2,-4.522275925E-2,-8.549404144E-2
9.903939120E-1,-3.810571134E-2,-1.868009567E-2,-4.586982727E-2
9.983794980E-1,-1.143617555E-3,-4.979944229E-2,3.458023071E-3
1.006362818E0,2.621873096E-2,-8.602237701E-2,8.649921417E-2
1.014342350E0,6.493453868E-3,-1.317811012E-1,1.216335297E-1
1.022321568E0,-7.368628867E-3,-1.582951546E-1,6.573486328E-2
1.030303287E0,-4.399316013E-2,-1.938276291E-1,-2.401733398E-2
1.038281685E0,-1.040001810E-1,-2.139582634E-1,-1.239738464E-1
1.046263209E0,-1.067860126E-1,-2.046494484E-1,-2.052021027E-1
1.054245709E0,-7.216536254E-2,-1.709475517E-1,-2.052974701E-1
1.062225904E0,-6.746361405E-2,-1.700949669E-1,-1.914386749E-1
1.070209185E0,-7.811126113E-2,-1.930398941E-1,-1.537246704E-1
1.078189967E0,-8.897826076E-2,-2.597250938E-1,-7.252311707E-2
1.086167584E0,-8.580693603E-2,-2.408461571E-1,-7.234001160E-2
1.094148053E0,-9.786167741E-2,-2.420926094E-1,-8.114814758E-2
1.102126060E0,-7.735724002E-2,-2.007951736E-1,-1.614484787E-1
1.110105201E0,1.837225631E-2,-1.314539909E-1,-2.030286789E-1
1.118082076E0,1.268459260E-1,-1.050095558E-1,-2.160072327E-1
1.126061998E0,1.966108084E-1,-8.263587952E-2,-1.336584091E-1
1.134039498E0,2.296108603E-1,-1.171431541E-1,-8.038425446E-2
1.142019771E0,2.027329504E-1,-1.410727501E-1,-8.516979218E-2
1.149998053E0,1.489719748E-1,-1.878519058E-1,-4.752063751E-2
1.157970123E0,1.473591328E-1,-2.894539833E-1,4.290828705E-1
1.165944420E0,1.354436576E-1,-3.445234299E-1,8.318414688E-1
1.173917701E0,7.630918920E-2,-2.307596207E-1,4.438114166E-1
1.181891100E0,4.228584468E-3,-1.176571846E-1,3.434925079E-1
1.189867623E0,-5.220321566E-2,-8.441543579E-2,3.408918381E-1
1.197846412E0,-1.159990951E-1,-1.119394302E-1,2.397165298E-1
1.205822389E0,-1.532826722E-1,-1.951322556E-1,1.355381012E-1
1.213798053E0,-1.510245353E-1,-1.465687752E-1,-8.699417114E-2
1.221777545E0,-1.186759174E-1,-5.723762512E-2,-2.123937607E-1
1.229755982E0,-1.025252938E-1,-4.112434387E-2,-2.507734299E-1
1.237733482E0,-4.781784117E-2,-6.358337402E-2,-2.985572815E-1
1.245710943E0,2.609115839E-2,-5.686807632E-2,-4.327869415E-1
1.253684146E0,7.910670340E-2,-2.961683273E-2,-5.535125732E-1
1.261659693E0,1.069604903E-1,1.841926575E-2,-5.842647552E-1
1.269636178E0,1.292373538E-1,6.341505051E-2,-5.586318970E-1
1.277614146E0,1.661620438E-1,7.207059860E-2,-5.533514023E-1
1.285593834E0,2.088406086E-1,5.832719803E-2,-4.388685226E-1
1.293572779E0,2.629277408E-1,4.064846039E-2,-4.302301407E-1
1.301551998E0,2.949734330E-1,1.922988892E-2,-3.791208267E-1
1.309532310E0,2.998877764E-1,1.303386688E-2,-4.099216461E-1
1.317508678E0,2.247729301E-1,-1.741886139E-3,-3.886432648E-1
1.325484889E0,1.591986269E-1,-5.435180664E-2,-3.437089920E-1
1.333466100E0,1.267661452E-1,-5.856227875E-2,-2.990884781E-1
1.341448482E0,1.125355139E-1,-9.094810486E-2,-1.973485947E-1
1.349431490E0,1.265745610E-1,-9.473705292E-2,-3.806686401E-2
1.357414303E0,1.745296121E-1,-9.020566940E-2,1.076211929E-1
1.365394185E0,2.188769877E-1,-9.191226959E-2,1.871662140E-1
1.373374732E0,2.741346359E-1,-7.624816895E-2,2.103490829E-1
1.381352350E0,3.069686890E-1,-3.298473358E-2,1.863508224E-1
1.389328053E0,2.834690213E-1,-4.278707504E-2,1.721839905E-1
1.397312779E0,1.937003285E-1,-3.379201889E-2,9.599781036E-2
1.405290318E0,8.096636087E-2,-3.388071060E-2,3.128051758E-4
1.413267115E0,3.103051335E-2,-3.862285614E-2,-3.319740295E-2
1.421240514E0,-3.318579495E-2,-6.627845764E-2,-3.859901428E-2
1.429221490E0,-5.504719913E-2,-7.443714142E-2,8.452415466E-3
1.437206217E0,-2.473608404E-2,-8.740472794E-2,5.072307587E-2
1.445188209E0,3.926029056E-2,-3.384733200E-2,2.328872681E-3
1.453173365E0,8.427827060E-2,-2.851057053E-2,-4.586029053E-2
1.461152818E0,1.300276220E-1,-1.370716095E-2,-4.129791260E-2
1.469127506E0,1.387165487E-1,6.108760834E-3,-6.558227539E-2
1.477105201E0,9.502645582E-2,7.176399231E-3,-1.188344955E-1
1.485083443E0,6.980068237E-2,-1.000404358E-3,-1.483564377E-1
1.493057584E0,5.375088006E-2,-3.859043121E-3,-1.542615891E-1
1.501039576E0,4.755772650E-2,-6.291866302E-3,-1.221084595E-1
1.509019850E0,8.046388626E-3,-5.102872849E-2,-5.212306976E-2
1.516999889E0,1.680149138E-2,-7.136154175E-2,2.238559723E-2
1.524979107E0,1.624050736E-2,-6.296110153E-2,5.858993530E-2
1.532956490E0,3.368687630E-2,-3.150463104E-2,-1.482200623E-2
1.540938209E0,5.447509885E-2,-2.483510971E-2,-4.944229126E-2
1.548924420E0,5.478534102E-2,-5.004882812E-3,-8.336257935E-2
1.556908482E0,5.007964373E-2,-1.988410950E-4,-3.069972992E-2
1.564889381E0,7.944250852E-2,-5.329608917E-3,4.613399506E-2
1.572872896E0,1.475534886E-1,3.394126892E-3,8.362770081E-3
1.580854264E0,1.679892540E-1,2.542018890E-3,-1.504421234E-2
1.588834693E0,1.358805895E-1,-3.034591675E-3,-4.327392578E-2
1.596817076E0,5.680997670E-2,9.541511536E-4,-4.753303528E-2
1.604800006E0,-7.830843329E-3,1.950883865E-2,-8.064270020E-2
1.612781178E0,-6.802549958E-2,2.850008011E-2,-1.233434677E-1
1.620758443E0,-1.099495888E-1,1.833677292E-2,-1.181774139E-1
1.628736373E0,-7.619169354E-2,3.471851349E-3,-1.035079956E-1
1.636716178E0,4.142507911E-3,1.797962189E-2,-7.488250732E-2
1.644694732E0,1.076437980E-1,7.125473022E-2,-2.740001678E-2
1.652677545E0,2.109272182E-1,1.106419563E-1,6.767463684E-2
1.660660748E0,3.162083626E-1,1.446256638E-1,2.110462189E-1
1.668641451E0,3.660200238E-1,1.159996986E-1,2.253856659E-1
1.676622310E0,3.599652350E-1,1.012587547E-1,1.825904846E-1
1.684603756E0,2.971298695E-1,7.174730301E-2,1.065330505E-1
1.692583990E0,2.105982751E-1,3.744697571E-2,1.166753769E-1
1.700565670E0,1.105509251E-1,1.251554489E-2,1.461200714E-1
1.708548795E0,9.235724062E-2,2.553367615E-2,1.183319092E-1
1.716529928E0,5.447818339E-2,1.898145676E-2,9.385108948E-3
1.724512818E0,3.906418383E-2,-7.516384125E-3,-1.771259308E-2
1.732494029E0,6.597703695E-2,-2.496385574E-2,2.252864838E-2
1.740477740E0,1.115587801E-1,-9.695529938E-3,2.972602844E-2
1.748460123E0,1.559602320E-1,4.329872131E-2,-4.415130615E-2
1.756441412E0,1.857989132E-1,4.784345627E-2,-4.586124420E-2
1.764423639E0,1.871944666E-1,3.282308578E-2,-1.574440002E-1
1.772407193E0,1.459600925E-1,3.564834595E-3,-2.451419830E-1
1.780391334E0,9.042538702E-2,-5.806446075E-3,-3.189163208E-1
1.788371256E0,1.095744967E-2,-4.246473312E-2,-3.217439651E-1
1.796351295E0,-3.514085710E-2,-5.347347260E-2,-2.920942307E-1
1.804328053E0,-9.685084224E-3,-4.377555847E-2,-2.490320206E-1
1.812312271E0,2.027049661E-2,-2.820348740E-2,-1.396017075E-1
1.820303482E0,4.993818700E-2,-2.946376801E-3,-7.334232330E-2
1.828294264E0,8.455869555E-2,7.676124573E-3,1.703071594E-2
1.836285631E0,1.430552900E-1,3.695678711E-2,2.630138397E-2
1.844278287E0,1.534457803E-1,4.160594940E-2,7.253646851E-3
1.852267115E0,8.680690825E-2,2.178573608E-2,-2.585029602E-2
1.860254732E0,4.336173832E-2,1.076745987E-2,-5.371189117E-2
1.868244576E0,3.248582780E-2,-1.514291763E-2,-3.817939758E-2
1.876231881E0,7.367269695E-2,-1.223516464E-2,-3.562927246E-3
1.884221139E0,1.438900083E-1,-9.275436401E-3,4.060554504E-2
1.892206998E0,2.194891423E-1,4.217910767E-2,8.441734314E-2
1.900192193E0,2.474200875E-1,7.966279984E-2,1.040544510E-1
1.908177584E0,2.416973114E-1,6.477880478E-2,1.426553726E-1
1.916163365E0,2.073587030E-1,4.994058609E-2,1.812267303E-1
1.924152271E0,1.640742719E-1,1.090717316E-2,1.864538193E-1
1.932140396E0,1.109869778E-1,-4.847526550E-3,1.968708038E-1
1.940129498E0,5.336114764E-2,-1.158094406E-2,2.124204636E-1
1.948115592E0,6.840352714E-2,-9.760379791E-3,2.477741241E-1
1.956094225E0,1.270214319E-1,1.457738876E-2,1.834564209E-1
1.964070162E0,1.899154037E-1,2.358865738E-2,1.005659103E-1
1.972047154E0,1.945820749E-1,2.203321457E-2,3.903388977E-3
1.980025670E0,1.597957164E-1,1.047134399E-2,-1.212482452E-1
1.988005670E0,1.242427528E-1,1.822042465E-2,-2.369308472E-1
1.995985162E0,9.785627574E-2,1.248550415E-2,-3.292226791E-1
2.003962389E0,1.096089557E-1,-6.318092346E-3,-3.744268417E-1
2.011941100E0,1.071734056E-1,-3.300333023E-2,-3.775777817E-1
2.019920279E0,8.569265902E-2,-1.013612747E-2,-3.195095062E-1
2.027896959E0,8.865589648E-2,-1.467800140E-2,-2.430944443E-1
2.035870943E0,1.059799641E-1,5.511760712E-3,-1.384334564E-1
2.043850045E0,1.477802992E-1,2.010345459E-3,-4.349517822E-2
2.051826256E0,1.519007236E-1,-1.740932465E-3,5.161762238E-2
2.059803756E0,1.706710458E-1,-1.115560532E-2,1.233320236E-1
2.067782623E0,2.233208418E-1,2.479076385E-3,1.189966202E-1
2.075760475E0,2.037481070E-1,1.991033554E-2,1.056900024E-1
2.083741178E0,1.172948405E-1,3.633117676E-2,3.554916382E-2
2.091721764E0,4.060658813E-2,-5.577087402E-3,-5.292892456E-4
2.099700279E0,1.434415579E-3,-3.823375702E-2,-2.684307098E-2
2.107681529E0,9.012743831E-3,-1.854133606E-2,2.842140198E-2
2.115663717E0,5.967383087E-2,2.010869980E-2,9.338855743E-2
2.123643834E0,1.059828773E-1,3.929424286E-2,1.058902740E-1
2.131621295E0,1.529812217E-1,5.773782730E-2,1.236639023E-1
2.139596803E0,1.672483683E-1,5.207586288E-2,1.032533646E-1
2.147571568E0,1.248753592E-1,2.691459656E-2,3.041553497E-2
2.155548678E0,6.347163022E-2,2.555418015E-2,-8.063793182E-2
2.163527115E0,3.089563549E-2,2.903747559E-2,-1.294622421E-1
2.171505631E0,7.350221276E-3,9.212970734E-3,-1.834850311E-1
2.179482232E0,-2.286657691E-3,2.375698090E-2,-2.188930511E-1
2.187461685E0,2.121362090E-2,3.461122513E-2,-2.166929245E-1
2.195443600E0,6.403540075E-2,1.302576065E-2,-1.433372498E-1
2.203426451E0,1.021396518E-1,3.036785126E-2,-1.182594299E-1
2.211407037E0,1.205791309E-1,2.852296829E-2,-8.359241486E-2
2.219386959E0,1.579870731E-1,3.588438034E-2,5.186176300E-2
2.227367428E0,2.148528695E-1,2.799749374E-2,8.732414246E-2
2.235350318E0,2.530860007E-1,-9.420394897E-3,1.041536331E-1
2.243332389E0,2.431539595E-1,-2.360773087E-2,8.791351318E-2
2.251309459E0,2.142126560E-1,-3.356122971E-2,6.724166870E-2
2.259287232E0,1.614472866E-1,-3.403615952E-2,-6.033897400E-3
2.267271725E0,1.131448746E-1,-1.538133621E-2,-1.080274582E-1
2.275258912E0,1.030802950E-1,-1.296997070E-3,-1.574831009E-1
2.283245006E0,1.266505569E-1,2.745676041E-2,-1.544523239E-1
2.291232271E0,1.597311348E-1,4.260826111E-2,-2.141571045E-1
2.299220787E0,1.602696180E-1,3.507947922E-2,-2.842206955E-1
2.307205709E0,1.563961506E-1,1.930856705E-2,-3.311853409E-1
2.315188717E0,1.575800925E-1,-4.732131958E-3,-3.694028854E-1
2.323173287E0,1.301603168E-1,-8.615970612E-3,-3.986797333E-1
2.331160748E0,1.309492737E-1,-6.885528564E-3,-3.470945358E-1
2.339148131E0,1.361716837E-1,-1.865673065E-2,-2.386093140E-1
2.347135123E0,1.506724954E-1,-3.967618942E-2,-1.207609177E-1
2.355123560E0,1.554565132E-1,-4.644346237E-2,-2.199649811E-2
2.363106412E0,1.454601735E-1,-6.837844849E-2,8.684635162E-2
2.371086646E0,1.543539762E-1,-7.698726654E-2,1.580400467E-1
2.379061451E0,1.674062014E-1,-3.923416138E-2,1.248445511E-1
2.387039264E0,1.983550340E-1,-2.514839172E-3,9.227848053E-2
2.395016920E0,1.946962178E-1,-4.890918732E-3,8.413696289E-2
2.402996217E0,2.003403455E-1,-2.672910690E-2,1.001272202E-1
2.410976607E0,1.636548787E-1,-3.875637054E-2,5.373573303E-2
2.418955435E0,1.416676491E-1,-7.556438446E-3,-1.666927338E-2
2.426935475E0,1.242582500E-1,-1.447248459E-2,-1.015625000E-1
2.434914068E0,1.309000254E-1,-6.515979767E-3,-1.628379822E-1
2.442889654E0,1.614785641E-1,2.145767212E-3,-2.149829865E-1
2.450865357E0,1.729286164E-1,1.646518707E-3,-2.099342346E-1
2.458845475E0,1.990161240E-1,1.569700241E-2,-1.235942841E-1
2.466820045E0,2.206847817E-1,3.462457657E-2,-3.730201721E-2
2.474798639E0,1.949810088E-1,2.913093567E-2,-1.294422150E-2
2.482776607E0,1.410313994E-1,4.015922546E-3,-6.010055542E-2
2.490756451E0,9.747208655E-2,-1.960277557E-3,-7.849884033E-2
2.498734576E0,6.903510541E-2,1.839160919E-3,-1.161718369E-1
2.506713756E0,5.516118556E-2,-1.751041412E-2,-1.591300964E-1
2.514689654E0,3.615355492E-2,2.347946167E-3,-1.643686295E-1
2.522665904E0,3.140373528E-2,2.757358551E-2,-1.364583969E-1
2.530645006E0,6.488367915E-2,4.372358322E-2,-8.493041992E-2
2.538624459E0,1.216987818E-1,6.036949158E-2,-6.724834442E-2
2.546607467E0,1.395569444E-1,4.838562012E-2,1.260662079E-2
2.554585670E0,1.526933461E-1,3.114700317E-2,1.406507492E-1
2.562564732E0,1.327319145E-1,2.236986160E-2,1.784305573E-1
2.570543560E0,1.131632999E-1,2.336978912E-3,1.550426483E-1
2.578528209E0,5.571852624E-2,-4.276466370E-2,1.180191040E-1
2.586509576E0,2.751374245E-2,-5.055904388E-2,3.854560852E-2
2.594495826E0,1.797170937E-2,-6.279516220E-2,-7.467269897E-2
2.602482701E0,3.759498149E-2,-5.543613434E-2,-1.354923248E-1
2.610468365E0,1.099110097E-1,-1.351404190E-2,-1.299419403E-1
2.618452545E0,1.535954028E-1,1.002645493E-2,-1.296758652E-1
2.626430514E0,1.536516696E-1,-8.930206299E-3,-1.537418365E-1
2.634416021E0,1.628045589E-1,-1.274299622E-2,-1.400089264E-1
2.642399264E0,1.049466729E-1,-2.986383438E-2,-7.907009125E-2
2.650379928E0,5.153291672E-2,-4.662466049E-2,-6.146144867E-2
2.658359810E0,4.050911963E-2,-5.854845047E-2,4.708194733E-2
2.666345396E0,9.666340798E-2,-1.868772507E-2,1.753520966E-1
2.674330475E0,1.526807696E-1,-1.814174652E-2,2.084960938E-1
2.682318600E0,2.047923654E-1,-3.325843811E-2,1.610832214E-1
2.690303053E0,2.090604007E-1,-2.480077744E-2,5.165481567E-2
2.698285514E0,1.847821176E-1,-2.128982544E-2,-4.993438721E-3
2.706265435E0,1.464433372E-1,1.363754272E-3,-4.726505280E-2
2.714245240E0,8.505378664E-2,-4.324626923E-2,-5.585956573E-2
2.722226646E0,3.383856267E-2,-5.869531631E-2,-1.700572968E-1
2.730208678E0,-7.239446044E-3,-4.934644699E-2,-2.129726410E-1
2.738190201E0,-3.329041600E-2,-4.428100586E-2,-2.130994797E-1
2.746171100E0,7.415682077E-3,-1.378059387E-4,-1.993618011E-1
2.754154615E0,5.699191242E-2,3.011035919E-2,-2.146654129E-1
2.762138287E0,6.750175357E-2,2.744817734E-2,-2.064294815E-1
2.770122037E0,3.981252015E-2,1.556491852E-2,-1.840572357E-1
2.778105162E0,2.234466374E-2,-9.350776672E-4,-2.623319626E-1
2.786093365E0,2.980886400E-2,-1.691675186E-2,-3.552837372E-1
2.794081490E0,2.326002717E-2,-3.671550751E-2,-3.435010910E-1
2.802064498E0,3.159429133E-2,-7.456207275E-2,-2.653703690E-1
2.810051998E0,6.429317594E-2,-7.313966751E-2,-2.117767334E-1
2.818037154E0,9.671819955E-2,-6.622886658E-2,-1.538362503E-1
2.826022896E0,1.332815140E-1,-5.422925949E-2,-1.468944550E-2
2.834010201E0,1.496805698E-1,-8.086490631E-2,1.246566772E-1
2.841998482E0,1.458515227E-1,-5.542516708E-2,1.877450943E-1
2.849983482E0,1.360898465E-1,-1.692008972E-2,3.090963364E-1
2.857967350E0,1.212158203E-1,-1.851749420E-2,3.214397430E-1
2.865952935E0,1.441952586E-1,-1.686906815E-2,2.916536331E-1
2.873941060E0,1.373057961E-1,-3.088808060E-2,2.387161255E-1
2.881923912E0,1.251552105E-1,-2.675819397E-2,2.199192047E-1
2.889907154E0,1.227288470E-1,-2.317428589E-2,1.057043076E-1
2.897898717E0,9.133870155E-2,-5.310964584E-2,2.979183197E-2
2.905885279E0,9.352189302E-2,-5.877065659E-2,2.549839020E-2
2.913871256E0,1.247746795E-1,-2.968883514E-2,1.292228699E-3
2.921860045E0,1.419983506E-1,-9.696483612E-3,-1.842975616E-2
2.929845435E0,1.981198937E-1,2.515220642E-2,3.337764740E-2
2.937827193E0,2.074158490E-1,4.564523697E-2,5.647087097E-2
2.945819107E0,1.697189957E-1,3.338336945E-3,6.077766418E-2
2.953808600E0,8.985373378E-2,-4.457092285E-2,3.361701965E-3
2.961796998E0,3.876973689E-2,-5.008983612E-2,-5.360889435E-2
2.969782662E0,3.573152423E-2,-3.226852417E-2,-1.532897949E-1
2.977770396E0,9.906185418E-2,-1.370000839E-2,-2.295141220E-1
2.985756881E0,1.289287210E-1,1.037073135E-2,-2.199954987E-1
2.993747076E0,1.255515069E-1,2.515077591E-2,-2.058610916E-1
3.001731725E0,1.267377883E-1,7.476329803E-3,-2.211332321E-1
3.009717857E0,1.421739906E-1,1.456594467E-2,-1.411542892E-1
3.017705045E0,1.332131177E-1,1.766157150E-2,-1.430864334E-1
3.025692740E0,9.562193602E-2,-2.747058868E-3,-6.867599487E-2
3.033681373E0,7.259206474E-2,-1.343917847E-2,5.654335022E-3
3.041672076E0,6.812354922E-2,1.373863220E-2,7.545948029E-2
3.049662935E0,4.925766587E-2,1.633453369E-2,1.791839600E-1
3.057646959E0,3.441460431E-2,-1.257896423E-3,2.260808945E-1
3.065629732E0,7.194250822E-2,1.333332062E-2,3.695735931E-1
3.073616725E0,1.285762638E-1,3.579139709E-2,3.321771622E-1
3.081607193E0,1.524060369E-1,4.230880737E-2,1.808633804E-1
3.089595084E0,1.764829457E-1,4.354095459E-2,4.423046112E-2
3.097580357E0,1.428659260E-1,4.922294617E-2,-4.430580139E-2
3.105568639E0,4.751740396E-2,3.676033020E-2,-1.382541656E-1
3.113556607E0,3.319047391E-2,2.101564407E-2,-1.804819107E-1
3.121542896E0,1.824249327E-2,-1.681423187E-2,-1.233301163E-1
3.129532076E0,7.042013109E-2,8.449077606E-3,-2.840614319E-2
3.137518756E0,1.375894547E-1,5.767154694E-2,1.864147186E-2
3.145503404E0,1.471937150E-1,4.869413376E-2,8.530235291E-2
3.153489615E0,1.799669862E-1,4.759502411E-2,1.290731430E-1
3.161477428E0,1.877722591E-1,2.097606659E-2,1.115627289E-1
3.169460631E0,1.567902565E-1,-5.066156387E-2,1.144084930E-1
3.177443521E0,1.545990258E-1,-2.790260315E-2,9.897136688E-2
3.185423873E0,1.527805775E-1,-4.420089722E-2,-1.174736023E-2
3.193405670E0,1.177493036E-1,-7.550716400E-3,-8.910560608E-2
3.201388678E0,9.745938331E-2,-3.159046173E-3,-1.097908020E-1
3.209374615E0,1.252647936E-1,-1.956272125E-2,-1.707668304E-1
3.217357779E0,1.104364917E-1,-1.948070526E-2,-1.373071671E-1
3.225342310E0,9.655190259E-2,-1.765108109E-2,-9.536170959E-2
3.233335553E0,1.033304632E-1,2.375507355E-2,-1.738996506E-1
3.241326334E0,7.250264287E-2,-2.992963791E-2,-1.810197830E-1
3.249320904E0,7.958412170E-3,-8.372497559E-2,-1.832857132E-1
3.257312076E0,4.353007674E-2,-4.614019394E-2,-2.672157288E-1
3.265303170E0,1.169172376E-1,-3.226327896E-2,-1.501817703E-1
3.273287896E0,1.575207710E-1,-1.426935196E-2,-2.792263031E-2
3.281266451E0,1.734453291E-1,-2.115726471E-3,-7.739543915E-2
3.289248053E0,1.007696688E-1,-5.351400375E-2,-5.427169800E-2
3.297229967E0,-2.718830109E-2,-1.207199097E-1,-8.296871185E-2
3.305213365E0,-1.249970943E-1,-1.943035126E-1,-7.242584229E-2
3.313191998E0,-1.217535734E-1,-2.503261566E-1,-8.011150360E-2
3.321174068E0,-8.274535835E-2,-2.301983833E-1,-3.007030487E-2
3.329155357E0,-7.099412382E-2,-2.194490433E-1,1.204519272E-1
3.337144889E0,6.232172251E-3,-2.317109108E-1,5.018520355E-2
3.345132623E0,5.711377785E-2,-3.134703636E-1,-4.545021057E-2
3.353116139E0,7.834230363E-2,-3.495230675E-1,9.674072266E-2
3.361094420E0,1.687124521E-1,-3.162455559E-1,-1.311903000E-1
3.369075982E0,2.992076874E-1,-1.476106644E-1,-3.503904343E-1
3.377055943E0,3.662855625E-1,3.575897217E-2,-2.154836655E-1
3.385038053E0,3.814173341E-1,7.525920868E-2,-6.605815887E-2
3.393020396E0,2.823444009E-1,-1.486968994E-1,3.076839447E-2
3.401000318E0,-7.053995878E-2,-6.582560539E-1,2.598381042E-2
3.408985709E0,-1.857017279E-1,-3.532586098E-1,6.879615784E-2
3.416970045E0,-2.461388111E-1,-1.313557625E-1,2.650642395E-2
3.424951217E0,-2.444717586E-1,-1.839518547E-1,-1.249427795E-1
3.432929498E0,-1.446805745E-1,-2.754898071E-1,-3.334808350E-1
3.440910162E0,-3.897561878E-2,-3.150525093E-1,-3.836088181E-1
3.448890435E0,-1.685611904E-3,-2.592625618E-1,-3.137769699E-1
3.456869576E0,7.223814726E-3,-1.654195786E-1,-2.725095749E-1
3.464847389E0,6.718203425E-3,-1.186652184E-1,-2.604570389E-1
3.472830592E0,3.024607897E-3,-1.136231422E-1,-2.252988815E-1
3.480808834E0,8.034259081E-4,-1.164588928E-1,-2.342710495E-1
3.488785201E0,-1.955123246E-2,-7.877254486E-2,-2.014923096E-1
3.496766178E0,-6.165243685E-3,-4.463195801E-2,-1.598834991E-1
3.504747428E0,3.929477930E-2,3.809547424E-2,-3.729724884E-2
3.512732154E0,7.370441407E-2,4.397773743E-2,1.620550156E-1
3.520713521E0,1.413479149E-1,6.783819199E-2,3.765048981E-1
3.528697623E0,1.710626781E-1,5.618333817E-2,4.485359192E-1
3.536682896E0,2.199531049E-1,8.066368103E-2,4.548568726E-1
3.544663639E0,2.591995001E-1,1.230292320E-1,3.997020721E-1
3.552646060E0,2.843126059E-1,1.215648651E-1,3.450002670E-1
3.560628482E0,2.759909332E-1,1.099076271E-1,3.529205322E-1
3.568603873E0,3.346092701E-1,1.267747879E-1,2.604150772E-1
3.576583248E0,3.789126575E-1,1.721940041E-1,1.775922775E-1
3.584565357E0,4.000637233E-1,2.035727501E-1,1.281023026E-1
3.592543873E0,4.065706134E-1,1.775884628E-1,4.503154755E-2
3.600523639E0,3.931441605E-1,1.801605225E-1,3.868007660E-2
3.608502154E0,3.739666045E-1,2.342414856E-1,-1.963615417E-2
3.616474185E0,3.095991910E-1,2.198543549E-1,4.305839539E-3
3.624449693E0,2.949456573E-1,1.985096931E-1,6.787490845E-2
3.632429029E0,3.163132966E-1,1.558570862E-1,1.471233368E-1
3.640408795E0,3.845829666E-1,1.787562370E-1,2.081375122E-1
3.648385201E0,4.517866075E-1,1.720080376E-1,2.649526596E-1
3.656365201E0,4.957339168E-1,1.835083961E-1,3.893814087E-1
3.664343600E0,5.309153795E-1,1.895136833E-1,3.466711044E-1
3.672327389E0,5.661013126E-1,2.287287712E-1,2.610826492E-1
3.680309498E0,5.546041727E-1,2.862658501E-1,1.425056458E-1
3.688295865E0,4.862771034E-1,3.046779633E-1,-1.000499725E-1
3.696282467E0,4.270651639E-1,3.036274910E-1,-2.801256180E-1
3.704266920E0,4.483956397E-1,2.970294952E-1,-3.447656631E-1
3.712253600E0,4.391312599E-1,3.180556297E-1,-4.565334320E-1
3.720236529E0,4.429499805E-1,3.333225250E-1,-4.574909210E-1
3.728217154E0,4.682815075E-1,3.820676804E-1,-1.663198471E-1
3.736198365E0,5.306305885E-1,3.163137436E-1,-9.091663361E-2
3.744179771E0,5.514147282E-1,2.466459274E-1,-4.957580566E-2
3.752158287E0,4.298000932E-1,2.259864807E-1,1.500415802E-2
3.760138912E0,2.037457675E-1,2.005329132E-1,-6.597518921E-3
3.768118404E0,-3.109291196E-2,8.393001556E-2,-1.190700531E-1
3.776099693E0,-2.153574526E-1,-5.488395691E-2,-2.374715805E-1
3.784080904E0,-3.313648701E-1,-1.670484543E-1,-2.570533752E-1
3.792059107E0,-3.456681371E-1,-2.239432335E-1,-1.969041824E-1
3.800038717E0,-3.460511565E-1,-2.456836700E-1,-1.808815002E-1
3.808019029E0,-3.088718951E-1,-2.511482239E-1,-2.091541290E-1
3.815998014E0,-2.192765325E-1,-2.837805748E-1,-1.426448822E-1
3.823979068E0,-1.566503942E-1,-2.961134911E-1,-2.975463867E-4
3.831957076E0,-8.195990324E-2,-2.692713737E-1,1.214981079E-2
3.839933287E0,-1.488061249E-2,-2.034101486E-1,1.931095123E-2
3.847909967E0,-1.336976886E-2,-1.800298691E-1,5.478000641E-2
3.855886646E0,-7.299042493E-2,-2.045931816E-1,6.633186340E-2
3.863863482E0,-8.972440660E-2,-2.340354919E-1,6.358337402E-2
3.871841295E0,-1.540574729E-1,-2.597889900E-1,5.675125122E-2
3.879819381E0,-2.242171913E-1,-2.625918388E-1,-1.218080521E-1
3.887795982E0,-3.409487009E-1,-2.994394302E-1,-2.185592651E-1
3.895769068E0,-4.170825183E-1,-3.363838196E-1,-2.864694595E-1
3.903746412E0,-4.402370453E-1,-3.527684212E-1,-2.882347107E-1
3.911727545E0,-4.234734178E-1,-3.430285454E-1,-3.297138214E-1
3.919708560E0,-3.239984512E-1,-2.930278778E-1,-2.240037918E-1
3.927684810E0,-2.377804518E-1,-2.273850441E-1,-7.122421265E-2
3.935665748E0,-1.360309571E-1,-2.084150314E-1,1.382551193E-1
3.943641920E0,-7.104469091E-2,-1.847758293E-1,2.759733200E-1
3.951630943E0,-9.759411216E-2,-2.372646332E-1,-8.936595917E-2
3.959592428E0,-2.244776040E-1,-1.581263542E-1,-1.260441780E0
3.967567271E0,-2.318614274E-1,-5.731201172E-2,-5.847272873E-1
3.975540982E0,-1.364819109E-1,-8.144330978E-2,3.372287750E-2
3.983515240E0,2.387012541E-2,-1.253104210E-1,1.257991791E-1
3.991494537E0,1.356822848E-1,-1.547393799E-1,3.902587891E-1
3.999473560E0,1.698077023E-1,-7.717561722E-2,6.279573441E-1
4.007448795E0,2.236524075E-1,4.429817200E-2,8.249959946E-1
4.015425592E0,2.253855169E-1,1.366281509E-1,9.725351334E-1
4.023401256E0,1.887787879E-1,2.236938477E-1,1.123286247E0
4.031380435E0,1.221083850E-1,2.199230194E-1,1.042263985E0
4.039361764E0,3.412044793E-2,1.315813065E-1,7.554683685E-1
4.047344693E0,-2.475173026E-2,-9.739685059E-2,2.639589310E-1
4.055326490E0,-4.435557127E-2,-4.751777649E-2,-1.228113174E-1
4.063309146E0,-1.026904210E-1,1.302580833E-1,-2.626447678E-1
4.071295240E0,-9.605740011E-2,2.413492203E-1,-3.913145065E-1
4.079281256E0,-2.302914113E-2,2.866559029E-1,-4.376058578E-1
4.087264225E0,1.410084516E-1,2.332534790E-1,-4.593601227E-1
4.095246451E0,2.508503497E-1,1.841583252E-1,-3.401689529E-1
4.103227779E0,2.625432611E-1,1.566348076E-1,-1.123476028E-1
4.111209615E0,1.886216998E-1,1.524572372E-1,1.302452087E-1
4.119192623E0,1.623356193E-1,1.463661194E-1,2.878618240E-1
4.127174225E0,9.678952396E-2,1.215310097E-1,4.099025726E-1
4.135157701E0,4.365297034E-2,5.867147446E-2,4.485483170E-1
4.143143756E0,1.146525145E-2,-2.374744415E-2,3.659191132E-1
4.151127975E0,-6.301964074E-2,-7.203435898E-2,2.092790604E-1
4.159109732E0,-9.283142537E-2,-1.131181717E-1,1.211738586E-1
4.167089732E0,-9.116773307E-2,-1.171236038E-1,2.429008484E-2
4.175071334E0,-1.793576218E-2,-7.733345032E-2,-2.990245819E-2
4.183051217E0,2.710062638E-2,-2.181720734E-2,-1.136531830E-1
4.191028678E0,8.767755330E-2,-1.147174835E-2,-1.943073273E-1
4.199009654E0,1.261756271E-1,-1.226997375E-2,-2.865571976E-1
4.206990006E0,1.283424497E-1,-9.804248810E-3,-4.191780090E-1
4.214971959E0,1.370477378E-1,2.967643738E-2,-5.013322830E-1
4.222951568E0,1.464313567E-1,5.256748199E-2,-4.701824188E-1
4.230931881E0,1.753580272E-1,2.451944351E-2,-3.970203400E-1
4.238916490E0,2.135093361E-1,-1.203870773E-2,-2.957868576E-1
4.246900045E0,2.308782637E-1,-5.397415161E-2,-1.702337265E-1
4.254882389E0,2.411198020E-1,-8.342838287E-2,-5.186080933E-3
4.262863560E0,2.122001499E-1,-1.291713715E-1,5.572605133E-2
4.270842818E0,2.203973383E-1,-1.333680153E-1,4.577922821E-2
4.278826021E0,2.366900146E-1,-1.196966171E-1,3.664207458E-2
4.286811959E0,1.952719688E-1,-1.259980202E-1,1.046285629E-1
4.294800475E0,1.539618969E-1,-1.854815483E-1,1.011123657E-1
4.302782779E0,1.321164221E-1,-2.066287994E-1,1.358861923E-1
4.310765592E0,1.632990539E-1,-1.605205536E-1,1.609487534E-1
4.318748912E0,1.713384241E-1,-1.095614433E-1,1.763925552E-1
4.326734225E0,1.610862017E-1,-9.633684158E-2,1.914739609E-1
4.334717310E0,1.753406376E-1,-1.067147255E-1,2.302818298E-1
4.342704967E0,1.336615980E-1,-1.043314934E-1,3.054161072E-1
4.350687310E0,6.058014184E-2,-1.207513809E-1,2.989187241E-1
4.358671920E0,2.982378006E-3,-1.180543900E-1,1.248483658E-1
4.366656998E0,-1.596066356E-2,-7.760524750E-2,6.604385376E-2
4.374640787E0,-8.355733007E-4,-2.385139465E-2,2.705955505E-2
4.382626334E0,5.271218717E-2,-2.810716629E-2,-8.819961548E-2
4.390610631E0,9.267624468E-2,-3.312683105E-2,-1.598873138E-1
4.398597584E0,1.135027558E-1,-1.959133148E-2,-1.976804733E-1
4.406583756E0,1.016407609E-1,-6.213665009E-3,-2.976274490E-1
4.414567506E0,9.930267930E-2,2.650260925E-3,-3.546485901E-1
4.422550982E0,9.599938989E-2,3.605556488E-2,-4.024629593E-1
4.430532818E0,1.103907526E-1,7.432222366E-2,-3.354024887E-1
4.438517389E0,1.428187191E-1,8.411931992E-2,-1.966724396E-1
4.446501256E0,1.799118966E-1,9.354639053E-2,-1.295375824E-1
4.454479850E0,1.643729657E-1,1.083717346E-1,-1.729173660E-1
4.462462154E0,1.393111497E-1,1.333441734E-1,-2.453861237E-1
4.470446334E0,6.131137908E-2,1.212792397E-1,-2.755527496E-1
4.478435865E0,-8.929141611E-2,7.283687592E-2,-3.260707855E-1
4.486422232E0,-2.314974070E-1,-2.564048767E-2,-2.872514725E-1
4.494407389E0,-2.499387860E-1,-8.863496780E-2,-2.687892914E-1
4.502393404E0,-1.583959460E-1,-7.422590256E-2,-2.795362473E-1
4.510378326E0,-6.261339784E-2,-7.305717468E-2,-1.520910263E-1
4.518364107E0,1.912263408E-2,-5.208730698E-2,4.679679871E-2
4.526350084E0,6.852190197E-2,-5.038690567E-2,1.308546066E-1
4.534338600E0,1.326524168E-1,-1.064214706E-1,1.767902374E-1
4.542325279E0,1.970816255E-1,-1.299452782E-1,2.233619690E-1
4.550310748E0,2.050134689E-1,-7.420063019E-3,5.108232498E-1
4.558296021E0,2.910014391E-1,-4.152774811E-2,6.183967590E-1
4.566276412E0,3.436066508E-1,-1.120648384E-1,5.840930939E-1
4.574261021E0,3.708658516E-1,-9.915351868E-2,5.275287628E-1
4.582242857E0,3.637190461E-1,-6.899833679E-3,4.865932465E-1
4.590226373E0,3.048221767E-1,7.356405258E-2,3.608140945E-1
4.598209928E0,2.366846204E-1,3.797912598E-2,1.686887741E-1
4.606192935E0,1.725702882E-1,1.867771149E-2,8.843421936E-2
4.614170592E0,1.317225844E-1,2.816438675E-2,4.168605804E-2
4.622151959E0,1.097979099E-1,6.233167648E-2,1.844120026E-2
4.630133443E0,1.927880347E-1,1.064901352E-1,-5.044937134E-3
4.638120865E0,2.379771471E-1,1.661405563E-1,-9.146785736E-2
4.646102467E0,3.063920736E-1,1.790556908E-1,-1.594371796E-1
4.654083912E0,3.553644717E-1,1.689157486E-1,-9.387016296E-2
4.662064850E0,4.381900430E-1,1.931161880E-1,-1.150054932E-1
4.670042975E0,4.982568622E-1,1.850767136E-1,-1.752462387E-1
4.678023209E0,5.112399459E-1,1.643490791E-1,-2.221717834E-1
4.686004420E0,4.968180656E-1,1.256957054E-1,-1.788835526E-1
4.693988053E0,4.691786170E-1,5.891418457E-2,-1.311836243E-1
4.701970162E0,3.655094504E-1,-1.187038422E-2,-1.893167496E-1
4.709951490E0,2.472613901E-1,-4.457998276E-2,-1.515321732E-1
4.717931998E0,1.609754413E-1,-5.385684967E-2,-1.325759888E-1
4.725914342E0,1.547548026E-1,-8.781766891E-2,-9.399986267E-2
4.733897857E0,1.758677363E-1,-7.495403290E-2,-3.081703186E-2
4.741881568E0,2.392402738E-1,-6.847286224E-2,-1.931381226E-2
4.749868326E0,2.636686265E-1,-5.819225311E-2,5.984973907E-2
4.757851646E0,2.502246201E-1,-8.209037781E-2,9.155654907E-2
4.765833678E0,1.869938225E-1,-1.100602150E-1,1.747226715E-2
4.773816021E0,9.769421071E-2,-1.231298447E-1,-6.173419952E-2
4.781800748E0,-7.811112329E-3,-1.496148109E-1,-1.750621796E-1
4.789782857E0,-1.113360748E-1,-1.940426826E-1,-2.700033188E-1
4.797765123E0,-1.946228445E-1,-2.282428741E-1,-2.935247421E-1
4.805747389E0,-2.399102896E-1,-2.231411934E-1,-2.889413834E-1
4.813731725E0,-2.333829403E-1,-1.837387085E-1,-3.758220673E-1
4.821710709E0,-1.940757483E-1,-1.429214478E-1,-4.875288010E-1
4.829690435E0,-1.364819258E-1,-1.091699600E-1,-5.577096939E-1
4.837671060E0,-1.375743896E-1,-9.747838974E-2,-4.854068756E-1
4.845650865E0,-1.288761199E-1,-9.933948517E-2,-3.465595245E-1
4.853634771E0,-1.089877635E-1,-1.056303978E-1,-1.600503922E-1
4.861621217E0,-8.762041479E-2,-1.173663139E-1,-1.215658188E-1
4.869605279E0,-1.132946610E-1,-1.341953278E-1,-1.786499023E-1
4.877589185E0,-1.345370710E-1,-1.227717400E-1,-1.588182449E-1
4.885572428E0,-1.810338795E-1,-1.023077965E-1,-1.721601486E-1
4.893550592E0,-2.334016412E-1,-9.660816193E-2,-1.325798035E-1
4.901529264E0,-2.391150445E-1,-1.052341461E-1,-4.992103577E-2
4.909510435E0,-2.268573344E-1,-9.881067276E-2,9.936714172E-2
4.917491178E0,-1.945759505E-1,-1.016821861E-1,3.298835754E-1
4.925472350E0,-1.173341498E-1,-1.192932129E-1,5.702133179E-1
4.933451256E0,-5.679857731E-2,-1.753163338E-1,7.339963913E-1
4.941427271E0,-5.090381950E-2,-1.690406799E-1,7.588939667E-1
4.949403443E0,1.797406003E-5,-6.251001358E-2,6.451215744E-1
4.957380279E0,-5.837970600E-2,-3.791522980E-2,4.933805466E-1
4.965355592E0,-1.221548468E-1,-2.346515656E-2,3.898792267E-1
4.973333014E0,-1.580420136E-1,-5.273628235E-2,3.729581833E-1
4.981309732E0,-1.416910291E-1,-7.298564911E-2,3.037109375E-1
4.989284615E0,-8.869344741E-2,-9.407186508E-2,2.205991745E-1
4.997263287E0,-6.072466820E-2,-1.202197075E-1,1.376523972E-1
5.005247154E0,-3.817366064E-2,-1.510486603E-1,1.312570572E-1
5.013229225E0,2.813873813E-2,-1.394367218E-1,1.348381042E-1
5.021208092E0,1.037405059E-1,-8.056783676E-2,6.218814850E-2
5.029192740E0,1.822315753E-1,-1.286840439E-2,1.391696930E-2
5.037174693E0,2.401531637E-1,1.136779785E-2,5.683803558E-2
5.045153873E0,3.270489275E-1,1.096916199E-2,4.271888733E-2
5.053132310E0,4.667204022E-1,5.827760696E-2,-6.706237793E-2
5.061112584E0,5.631363988E-1,1.870403290E-1,-2.008152008E-1
5.069092389E0,5.661941767E-1,2.442440987E-1,-4.113636017E-1
5.077074889E0,5.197141767E-1,2.483696938E-1,-4.636583328E-1
5.085050826E0,4.400330782E-1,1.712141037E-1,-6.070022583E-1
5.093029029E0,3.884003162E-1,9.026050568E-2,-6.216592789E-1
5.101003717E0,3.399868906E-1,3.415012360E-2,-5.171623230E-1
5.108983326E0,2.519289255E-1,-6.879854202E-2,-2.600660324E-1
5.116962623E0,2.206722051E-1,-1.093792915E-1,-3.655529022E-2
5.124943365E0,1.978923827E-1,-1.219582558E-1,2.209167480E-1
5.132928912E0,1.884149462E-1,-1.112513542E-1,3.878087997E-1
5.140915592E0,1.448977143E-1,-1.020951271E-1,4.694576263E-1
5.148897818E0,1.113485023E-1,-9.470510483E-2,4.181070328E-1
5.156876725E0,1.359115690E-1,-7.420110703E-2,3.962554932E-1
5.164858092E0,1.572214812E-1,-5.890703201E-2,2.357997894E-1
5.172837623E0,1.999237388E-1,-6.233072281E-2,7.986736298E-2
5.180813443E0,2.299740165E-1,-4.509735107E-2,4.428863525E-3
5.188792037E0,1.753517538E-1,-3.022670746E-2,-5.811882019E-2
5.196772389E0,8.374562860E-2,-5.199575424E-2,-6.421852112E-2
5.204750787E0,-2.167158574E-2,-7.338047028E-2,4.915904999E-2
5.212724928E0,-1.265251637E-1,-1.472949982E-1,9.062004089E-2
5.220705982E0,-7.224427164E-2,-8.755970001E-2,8.924007416E-2
5.228686334E0,-6.565423310E-2,-6.621646881E-2,1.720428467E-3
5.236663912E0,-5.011106282E-2,-7.402801514E-2,-3.765487671E-2
5.244644928E0,-2.663955092E-4,-3.880167007E-2,4.404067993E-3
5.252622896E0,6.113572791E-2,1.594972610E-2,-1.548786163E-1
5.260600865E0,6.130100787E-2,4.463195801E-3,-2.619705200E-1
5.268580631E0,4.210808128E-2,-4.002952576E-2,-1.778297424E-1
5.276559810E0,9.588658065E-2,-3.196239471E-3,7.874393463E-2
5.284543092E0,8.967647702E-2,-2.100944519E-3,2.265224457E-1
5.292521295E0,5.087736994E-2,-1.689910889E-2,1.501703262E-1
5.300502935E0,-8.155101910E-3,-1.889085770E-2,-6.639480591E-3
5.308482896E0,-4.479571432E-2,1.185417175E-2,-8.636188507E-2
5.316457310E0,-6.476005912E-2,7.083797455E-2,-1.610002518E-1
5.324435865E0,-7.181947678E-2,7.781553268E-2,-1.450595856E-1
5.332416451E0,-1.733589545E-2,4.790496826E-2,-1.299762726E-1
5.340398600E0,6.601209939E-2,5.769109726E-2,-1.731920242E-1
5.348381685E0,1.118469536E-1,6.008863449E-2,-2.272968292E-1
5.356361881E0,1.390602440E-1,4.037857056E-2,-1.963109970E-1
5.364343678E0,1.532362103E-1,-2.177190781E-2,-8.430576324E-2
5.372327701E0,1.733310521E-1,-5.048990250E-2,-6.321334839E-2
5.380309107E0,1.633857042E-1,-7.432126999E-2,-1.235828400E-1
5.388292232E0,1.603533626E-1,-6.513500214E-2,-6.395626068E-2
5.396271998E0,1.023925990E-1,-8.090686798E-2,-8.522987366E-3
5.404253873E0,9.495396912E-2,-1.130528450E-1,1.678113937E-1
5.412235279E0,9.630100429E-2,-1.224255562E-1,2.873792648E-1
5.420213482E0,1.036867350E-1,-1.560182571E-1,3.496618271E-1
5.428193521E0,1.036273986E-1,-9.010362625E-2,2.306213379E-1
5.436168600E0,9.541121125E-2,-7.684183121E-2,1.211557388E-1
5.444146100E0,1.245316565E-1,-3.967523575E-2,4.522800446E-2
5.452125748E0,1.080580801E-1,-3.653860092E-2,2.225875854E-2
5.460105162E0,9.951134771E-2,-6.312847137E-2,1.818437576E-1
5.468079810E0,6.776142865E-2,-9.062862396E-2,2.557859421E-1
5.476054654E0,6.489215791E-2,-7.526826859E-2,2.101631165E-1
5.484030748E0,5.743935704E-2,-6.019067764E-2,2.173891068E-1
5.492010045E0,1.823065430E-2,7.664203644E-3,1.479454041E-1
5.499989420E0,-4.455488920E-2,-1.046895981E-2,7.359600067E-2
5.507964303E0,-5.009966716E-2,-2.829456329E-2,7.567691803E-2
5.515942310E0,-3.515899554E-2,-1.230478287E-2,-4.212284088E-2
5.523921490E0,9.280748665E-3,2.859401703E-2,-2.802143097E-1
5.531896842E0,-4.140313715E-3,5.272197723E-2,-3.234186172E-1
5.539878834E0,-1.157177985E-2,4.626369476E-2,-3.396558762E-1
5.547858326E0,2.668283880E-2,6.008768082E-2,-1.506567001E-1
5.555833912E0,9.203866869E-2,7.836961746E-2,2.317428589E-4
5.563809381E0,1.413280368E-1,7.501983643E-2,2.866802216E-1
5.571783404E0,1.294884086E-1,5.329942703E-2,3.935832977E-1
5.579760357E0,2.003701627E-1,7.713460922E-2,2.385330200E-1
5.587740123E0,2.144499719E-1,7.585906982E-2,-2.593040466E-2
5.595721490E0,2.135939449E-1,9.852647781E-2,-2.425069809E-1
5.603700201E0,1.739104688E-1,7.104539871E-2,-3.552637100E-1
5.611680396E0,7.323504239E-2,9.325075150E-2,-3.972702026E-1
5.619660006E0,-4.286649823E-2,7.446146011E-2,-4.453449249E-1
5.627657076E0,-1.135255471E-1,3.375339508E-2,-2.648239136E-1
5.635625084E0,-9.363164008E-2,-1.647901535E-2,-3.165721893E-2
5.643605670E0,2.373598516E-3,-3.916025162E-2,-5.157279968E-2
5.651582779E0,1.008472741E-1,-2.057743073E-2,4.930973053E-2
5.659560045E0,1.881593466E-1,-2.397584915E-2,2.572364807E-1
5.667538756E0,3.019720614E-1,3.752660751E-2,1.887159348E-1
5.675520201E0,3.157438040E-1,5.487537384E-2,1.591558456E-1
5.683500084E0,2.976806462E-1,1.496458054E-2,2.893924713E-2
5.691480006E0,2.526636720E-1,-2.883005142E-2,-7.307815552E-2
5.699461412E0,1.655585170E-1,-8.902645111E-2,-2.390127182E-1
5.707444850E0,8.589549363E-2,-1.074905396E-1,-1.245012283E-1
5.715427935E0,8.053864539E-2,-6.250953674E-2,-1.447772980E-1
5.723412232E0,1.041181087E-1,-4.510879517E-2,-3.237638474E-1
5.731397740E0,7.691401988E-2,-5.148124695E-2,-3.927364349E-1
5.739383795E0,-1.884309202E-2,-1.014504433E-1,-1.645364761E-1
5.747372662E0,-4.304711893E-2,-1.329994202E-1,5.932044983E-2
5.755353131E0,8.935000747E-3,-8.838367462E-2,1.302175522E-1
5.763335787E0,9.894348681E-2,-6.092071533E-3,1.823463440E-1
5.771316998E0,2.218680084E-1,9.500837326E-2,1.293306351E-1
5.779299381E0,2.676056623E-1,1.614503860E-1,9.137248993E-2
5.787280553E0,2.546868622E-1,1.601114273E-1,1.065273285E-1
5.795263873E0,2.167962492E-1,1.099238396E-1,1.462049484E-1
5.803249107E0,1.782023162E-1,4.855585098E-2,1.772813797E-1
5.811231021E0,1.106380075E-1,-4.963397980E-3,1.136455536E-1
5.819210982E0,3.421118855E-2,-2.114152908E-2,-5.952358246E-2
5.827194225E0,-7.812865078E-3,-1.797294617E-2,-2.854681015E-1
5.835173521E0,-3.005801514E-2,-3.716516495E-2,-4.501237869E-1
5.843153326E0,-1.802680083E-2,-5.416297913E-2,-4.916143417E-1
5.851135084E0,4.413607717E-2,-8.689689636E-2,-4.633636475E-1
5.859116842E0,6.540609896E-2,-7.435226440E-2,-5.322103500E-1
5.867095982E0,5.399067700E-2,-5.936670303E-2,-5.546617508E-1
5.875073873E0,8.966274559E-3,-6.183147430E-2,-3.578748703E-1
5.883052232E0,3.679521382E-2,-2.623224258E-2,-2.183904648E-1
5.891031881E0,4.069456086E-2,-3.415012360E-2,-2.414436340E-1
5.899009342E0,-2.939735726E-2,-3.286218643E-2,-2.068166733E-1
5.906986373E0,-4.350698739E-2,-1.737308502E-2,-2.008199692E-1
5.914966256E0,8.348431438E-3,2.623128891E-2,-8.910751343E-2
5.922942935E0,1.137058735E-1,3.558397293E-2,-1.525115967E-2
5.930918951E0,2.384333611E-1,1.012182236E-1,-5.560016632E-2
5.938898600E0,2.278926671E-1,1.459312439E-2,-5.558013916E-3
5.946877701E0,1.796170026E-1,3.290939331E-2,2.558135986E-2
5.954853912E0,1.603719145E-1,8.016681671E-2,-1.540946960E-1
5.962827037E0,9.244228899E-2,5.108404160E-2,-1.567659378E-1
5.970804107E0,1.883753389E-2,2.326965332E-2,-1.075248718E-1
5.978779615E0,-4.546879232E-2,-3.798961639E-3,8.315086365E-3
5.986754537E0,-4.704860970E-2,-6.398200989E-3,9.990215302E-2
5.994732350E0,-2.423968539E-2,1.472568512E-2,8.149814606E-2
6.002706021E0,2.649491653E-2,3.625297546E-2,-4.179954529E-3
6.010683795E0,5.275236815E-2,1.192812920E-1,1.500148773E-1
6.018662232E0,7.970599085E-2,1.105570793E-1,2.998905182E-1
6.026638131E0,1.086449400E-1,8.547639847E-2,3.982830048E-1
6.034614693E0,9.227116406E-2,1.157140732E-1,2.585363388E-1
6.042590396E0,5.195508152E-2,8.287906647E-2,8.096790314E-2
6.050563560E0,1.175488159E-2,3.108596802E-2,-9.671115875E-2
6.058542545E0,-1.439633593E-2,9.475421906E-2,-1.454238892E-1
6.066519420E0,-1.217559353E-2,1.783547401E-1,-7.967185974E-2
6.074494732E0,-2.036751807E-2,2.182965279E-1,-8.063507080E-2
6.082469068E0,-5.357946455E-2,2.192673683E-1,-4.290103912E-2
6.090446139E0,-8.419833332E-2,2.246513367E-1,-9.742736816E-3
6.098424303E0,-7.484115660E-2,2.197322845E-1,1.483278275E-1
6.106403521E0,-1.012400612E-1,2.438020706E-2,2.961664200E-1
6.114380396E0,5.425254628E-2,1.386699677E-1,4.641151428E-1
6.122358092E0,1.920354664E-1,1.899600029E-1,4.218235016E-1
6.130335943E0,1.693288237E-1,1.062326431E-1,3.561534882E-1
6.138311998E0,1.832214594E-1,6.536340714E-2,1.565570831E-1
6.146288521E0,1.415798217E-1,1.104640961E-2,-1.005935669E-2
6.154262740E0,5.436813459E-2,-2.781152725E-2,-1.198616028E-1
6.162236060E0,4.997224547E-3,-8.700847626E-3,-2.443284988E-1
6.170207310E0,-3.639861941E-2,5.490779877E-3,-1.340885162E-1
6.178180709E0,-7.383315265E-2,-2.519416809E-2,-1.712341309E-1
6.186152623E0,6.103402376E-2,5.660057068E-3,-5.000514984E-1
6.194128248E0,1.518425643E-1,4.653882980E-2,-8.051939011E-1
6.202104146E0,1.709741205E-1,-1.129007339E-2,-8.145523071E-1
6.210080396E0,1.706137657E-1,-1.925373077E-2,-7.676277161E-1
6.218056060E0,1.428982168E-1,-2.048301697E-2,-5.781984329E-1
6.226035162E0,1.542874724E-1,-2.985525131E-2,-3.177890778E-1
6.234007623E0,1.963492334E-1,-1.019954681E-3,-2.392692566E-1
6.241980748E0,2.008686066E-1,-1.138591766E-2,-2.607698441E-1
6.249954537E0,1.368048638E-1,-1.200866699E-2,-4.260215759E-1
6.257928990E0,7.531491667E-2,-3.109931946E-3,-3.566160202E-1
6.265908014E0,2.741232328E-2,4.453802109E-2,-2.587385178E-1
6.273885670E0,1.269521713E-1,1.778755188E-1,-1.222629547E-1
6.281865084E0,1.716698408E-1,1.730065346E-1,1.909942627E-1
6.289842935E0,1.700247079E-1,1.109342575E-1,3.125734329E-1
6.297818951E0,1.667565107E-1,1.255264282E-1,1.133165359E-1
6.305795982E0,1.715248823E-1,1.831569672E-1,-2.774276733E-1
6.313774967E0,6.280629337E-2,1.350932121E-1,-3.998012543E-1
6.321753170E0,-3.090805933E-2,1.406579018E-1,-4.556837082E-1
6.329733795E0,-4.163622111E-2,1.558504105E-1,-2.195129395E-1
6.337707584E0,-3.847848997E-2,1.044597626E-1,-7.543563843E-3
6.345683756E0,1.849777997E-2,2.073879242E-1,-7.870960236E-2
6.353658560E0,6.008052453E-2,2.761168480E-1,-6.807613373E-2
6.361632115E0,6.329582632E-2,2.253093719E-1,9.569454193E-2
6.369609967E0,2.259542793E-2,1.237497330E-1,2.822999954E-1
6.377588014E0,-9.106852114E-3,1.231799126E-1,3.920459747E-1
6.385568756E0,2.879895642E-2,9.919738770E-2,3.578338623E-1
6.393552193E0,3.613645956E-2,1.265864372E-1,4.823818207E-1
6.401536725E0,2.314619347E-2,1.145415306E-1,5.501165390E-1
6.409525709E0,8.808158338E-3,6.873512268E-2,5.796775818E-1
6.417514459E0,3.682663292E-2,-2.163553238E-2,7.345819473E-1
6.425502857E0,1.756795123E-2,-6.153821945E-2,8.811740875E-1
6.433494654E0,3.119695559E-2,-1.706876755E-1,8.710060120E-1
6.441486334E0,-2.393033355E-3,-2.289447784E-1,9.097414017E-1
6.449477975E0,1.789981499E-2,-2.556333542E-1,6.718673706E-1
6.457461998E0,-4.312310368E-2,-3.067240715E-1,3.815879822E-1
6.465449576E0,-1.985781454E-2,-2.618041039E-1,2.731237411E-1
6.473435865E0,7.562413067E-2,-2.124967575E-1,2.059373856E-1
6.481423287E0,2.101607472E-1,-1.527481079E-1,2.675600052E-1
6.489410787E0,2.506402135E-1,-1.782259941E-1,3.717355728E-1
6.497394029E0,2.945865989E-1,-1.990871429E-1,4.233512878E-1
6.505378248E0,2.846143842E-1,-1.581363678E-1,1.352596283E-1
6.513364146E0,2.133897990E-1,-1.359362602E-1,-8.122730255E-2
6.521352350E0,8.513839543E-2,-2.124910355E-1,-2.412824631E-1
6.529334771E0,1.103548147E-2,-2.201581001E-1,-5.077400208E-1
6.537321685E0,-5.857216567E-2,-2.301893234E-1,-6.367301941E-1
6.545305865E0,-7.614347339E-2,-2.390351295E-1,-4.647321701E-1
6.553289420E0,-2.424597740E-3,-2.526469231E-1,-3.549890518E-1
6.561274264E0,2.283800021E-2,-2.704668045E-1,-3.317718506E-1
6.569258131E0,-2.046279609E-2,-3.206763268E-1,-2.613325119E-1
6.577245982E0,2.878770232E-3,-2.408742905E-1,-1.865224838E-1
6.585234537E0,6.972037256E-3,-1.322755814E-1,7.965087891E-3
6.593220318E0,3.524155915E-2,-1.003808975E-1,7.322025299E-2
6.601207545E0,8.299348503E-2,-6.875133514E-2,-1.459312439E-2
6.609186646E0,7.168737054E-2,-6.983089447E-2,-2.148342133E-2
6.617160045E0,8.407324553E-2,-2.851533890E-2,-1.811971664E-1
6.625134107E0,5.797477812E-2,-5.968856812E-2,-2.639188766E-1
6.633111100E0,2.206891775E-2,-7.673549652E-2,-4.039630890E-1
6.641089225E0,3.898790479E-2,-1.316456795E-1,-4.532804489E-1
6.649065865E0,8.513137698E-2,-1.802849770E-1,-3.789396286E-1
6.657043053E0,1.556897461E-1,-1.846938133E-1,-3.148164749E-1
6.665020279E0,2.546004951E-1,-5.389881134E-2,-1.124725342E-1
6.672996881E0,2.617882192E-1,-2.307081223E-2,1.422080994E-1
6.680972975E0,2.456903309E-1,-6.659030914E-3,2.149705887E-1
6.688949771E0,1.668023765E-1,-3.882360458E-2,1.971521378E-1
6.696925162E0,1.542256624E-1,-5.288028717E-2,2.996292114E-1
6.704901295E0,1.268165559E-1,-7.839536667E-2,2.307872772E-1
6.712878443E0,7.108560950E-2,-1.295423508E-1,1.006622314E-1
6.720861451E0,1.350035220E-1,-1.198110580E-1,-4.784202576E-2
6.728841412E0,2.169360965E-1,-8.694934845E-2,-5.224895477E-2
6.736817350E0,2.418317497E-1,-6.460285187E-2,-7.048702240E-2
6.744791256E0,2.764898241E-1,-1.382684708E-2,-1.364316940E-1
6.752769225E0,1.717304885E-1,-5.895233154E-2,-1.352720261E-1
6.760744810E0,9.105097502E-2,-6.609535217E-2,-9.082889557E-2
6.768722545E0,2.044205368E-2,-3.423023224E-2,-2.287359238E-1
6.776694381E0,-3.772532940E-2,-3.812360764E-2,-2.148885727E-1
6.784671451E0,-5.793502927E-2,-7.236480713E-3,-6.504058838E-4
6.792646256E0,-3.861351311E-2,1.957798004E-2,6.954860687E-2
6.800624459E0,1.412481815E-2,-1.506853104E-2,2.207050323E-1
6.808602740E0,3.845539689E-2,-4.609155655E-2,4.682931900E-1
6.816580084E0,3.293153644E-2,-7.904529572E-2,5.876741409E-1
6.824553678E0,1.124116033E-1,-4.319381714E-2,5.890321732E-1
6.832527389E0,1.581258923E-1,-8.567810059E-2,3.854665756E-1
6.840504264E0,1.772026420E-1,-1.435451508E-1,5.794525146E-2
6.848480865E0,1.711123586E-1,-1.630215645E-1,-3.021335602E-2
6.856454732E0,2.030539811E-1,-2.438821793E-1,-1.475906372E-1
6.864427350E0,2.793397903E-1,-2.855167389E-1,-3.756036758E-1
6.872398717E0,4.051601887E-1,-2.730021477E-1,-6.331634521E-1
6.880373209E0,4.984500408E-1,-2.128291130E-1,-7.927532196E-1
6.888347935E0,4.584446251E-1,-2.157855034E-1,-6.816196442E-1
6.896320826E0,4.766613841E-1,-1.120052338E-1,-4.228181839E-1
6.904296490E0,4.474202394E-1,-9.378528595E-2,-4.085655212E-1
6.912263482E0,4.983104467E-1,-7.232666016E-2,-3.024625778E-1
6.920232623E0,4.938993752E-1,-6.187009811E-2,-3.727445602E-1
6.928201139E0,4.049199522E-1,-9.164476395E-2,-3.749294281E-1
6.936174225E0,3.942828178E-1,-5.091619492E-2,-3.859615326E-1
6.944154029E0,4.047777653E-1,-3.491163254E-2,-3.726158142E-1
6.952132975E0,4.566602409E-1,2.370595932E-2,-4.547538757E-1
6.960110045E0,5.133123994E-1,4.396533966E-2,-5.942964554E-1
6.968083600E0,4.924839735E-1,5.556917191E-2,-5.475845337E-1
6.976059381E0,4.330941737E-1,4.378604889E-2,-4.436931610E-1
6.984033756E0,4.081662297E-1,-1.084327698E-3,-3.017034531E-1
6.992005865E0,3.792333007E-1,-5.054235458E-2,-2.986669540E-1
6.999976490E0,3.525090814E-1,-3.718948364E-2,-4.395856857E-1
7.007946803E0,3.122676611E-1,1.508235931E-2,-4.611186981E-1
7.015922193E0,2.640853822E-1,2.038335800E-2,-3.586606979E-1
7.023903092E0,2.613901496E-1,7.444715500E-2,-4.530258179E-1
7.031881959E0,1.936867386E-1,1.431832314E-1,-4.709539413E-1
7.039863912E0,4.638429731E-2,1.545619965E-1,-3.979682922E-1
7.047841490E0,-7.902152836E-3,2.247328758E-1,-3.715305328E-1
7.055819303E0,-4.887362942E-2,2.757096291E-1,-4.168605804E-1
7.063791217E0,-1.448182017E-2,3.649616241E-1,-4.860801697E-1
7.071764693E0,-3.920841590E-2,3.913741112E-1,-3.250932693E-1
7.079736568E0,-1.537556201E-2,3.989477158E-1,-1.659297943E-1
7.087710709E0,-1.517798752E-2,3.703370094E-1,-2.926073074E-1
7.095687271E0,-5.403919891E-2,3.311276436E-1,-3.995542526E-1
7.103664576E0,-1.174776480E-1,3.151431084E-1,-4.390516281E-1
7.111648170E0,-1.324772090E-1,3.475952148E-1,-6.272945404E-1
7.119635162E0,-1.199893430E-1,4.004139900E-1,-6.868934631E-1
7.127619693E0,-1.689395308E-1,3.873119354E-1,-6.226139069E-1
7.135604303E0,-1.500910521E-1,3.515634537E-1,-6.021537781E-1
7.143587975E0,-2.638721466E-2,3.561425209E-1,-4.583005905E-1
7.151572818E0,7.843567431E-2,3.850622177E-1,-3.242492676E-1
7.159558834E0,1.414673030E-1,3.707604408E-1,-2.523937225E-1
7.167545943E0,1.719239503E-1,3.189487457E-1,-3.007011414E-1
7.175532975E0,1.399580538E-1,2.545428276E-1,-2.781610489E-1
7.183512389E0,8.014014363E-2,2.105460167E-1,-1.318264008E-1
7.191488131E0,8.254164457E-2,1.821975708E-1,-7.238960266E-2
7.199466217E0,1.041597426E-1,1.633634567E-1,7.806587219E-2
7.207445514E0,1.112999916E-1,1.975317001E-1,1.086368561E-1
7.215422037E0,1.037514806E-1,1.935443878E-1,1.487121582E-1
7.223396373E0,2.558977902E-2,1.767764091E-1,2.070531845E-1
7.231373560E0,-4.075257480E-2,1.526799202E-1,3.311691284E-1
7.239344342E0,-4.330561310E-2,1.729974747E-1,4.497652054E-1
7.247315514E0,-5.428133160E-2,1.793889999E-1,4.292554855E-1
7.255290123E0,-5.527620018E-2,2.482137680E-1,4.230241776E-1
7.263266100E0,-6.506385654E-2,2.737746239E-1,4.839296341E-1
7.271241412E0,-8.851561695E-2,2.503781319E-1,5.119028091E-1
7.279215396E0,-1.155835092E-1,2.971739769E-1,4.401969910E-1
7.287192271E0,-1.465606838E-1,3.373956680E-1,2.880496979E-1
7.295171295E0,-2.586656809E-1,3.375310898E-1,-3.073024750E-2
7.303149850E0,-3.657997847E-1,3.316411972E-1,-2.147674561E-1
7.311125904E0,-4.194257259E-1,3.775243759E-1,-3.600187302E-1
7.319099967E0,-3.038825691E-1,4.317278862E-1,-2.939119339E-1
7.327073912E0,-1.405761987E-1,4.188599586E-1,-2.277793884E-1
7.335046998E0,5.084916204E-2,4.008431435E-1,2.052593231E-2
7.343022545E0,1.204861775E-1,3.641934395E-1,-1.049175262E-1
7.351001803E0,5.431962013E-2,3.050241470E-1,-4.913902283E-2
7.358977428E0,3.121405095E-2,2.849264145E-1,-6.558895111E-2
7.366950006E0,8.899813890E-2,2.970771790E-1,-3.826236725E-2
7.374923834E0,1.243178695E-1,3.112678528E-1,-1.423740387E-2
7.382901881E0,2.650781870E-1,2.807416916E-1,4.898548126E-2
7.390880201E0,4.255678952E-1,2.971673012E-1,-1.655292511E-2
7.398858639E0,5.929165483E-1,2.949500084E-1,3.294630051E-1
7.406835006E0,6.839234829E-1,3.821334839E-1,4.704322815E-1
7.414810865E0,8.149920106E-1,4.331092834E-1,5.218534470E-1
7.422789068E0,8.100547194E-1,2.993106842E-1,5.603990555E-1
7.430767271E0,6.622672081E-1,1.789741516E-1,2.642526627E-1
7.438746490E0,5.642940998E-1,2.127223015E-1,5.845069885E-3
7.446725357E0,4.912757277E-1,3.412685394E-1,-6.494674683E-1
7.454703365E0,4.414542913E-1,3.273272514E-1,-9.462499619E-1
7.462684185E0,4.531558454E-1,2.156510353E-1,-1.167925358E0
7.470663678E0,5.802395344E-1,2.764573097E-1,-1.009177208E0
7.478643756E0,7.039553523E-1,3.975973129E-1,-9.525432587E-1
7.486622115E0,7.036167383E-1,4.832596779E-1,-7.681550980E-1
7.494598717E0,6.225509048E-1,4.383707047E-1,-5.064525604E-1
7.502575709E0,6.126600504E-1,3.867559433E-1,-4.160737991E-1
7.510553834E0,6.757324338E-1,3.378081322E-1,-3.963537216E-1
7.518530240E0,7.791001797E-1,3.636140823E-1,-1.457767487E-1
7.526504810E0,8.131016493E-1,3.759913445E-1,1.739339828E-1
7.534480748E0,8.213516474E-1,4.175081253E-1,3.380222321E-1
7.542458014E0,8.581028581E-1,4.884018898E-1,4.421434402E-1
7.550437076E0,8.859148622E-1,4.825339317E-1,3.909978867E-1
7.558418990E0,9.107398987E-1,4.726610184E-1,3.421268463E-1
7.566398248E0,8.976879716E-1,5.040030479E-1,1.124362946E-1
7.574378678E0,8.252190948E-1,5.055208206E-1,-1.597690582E-2
7.582354889E0,7.908453941E-1,4.786334038E-1,-7.742309570E-2
7.590335553E0,8.000681400E-1,4.483275414E-1,-6.732940674E-4
7.598314459E0,7.810846567E-1,4.238505363E-1,1.234607697E-1
7.606293639E0,7.546492815E-1,3.958511353E-1,1.655521393E-1
7.614275240E0,7.146452665E-1,5.459299088E-1,1.353693008E-1
7.622254342E0,6.866009235E-1,7.964777946E-1,-4.789638519E-2
7.630235162E0,4.927133918E-1,9.709367752E-1,-3.797836304E-1
7.638215084E0,3.743555769E-2,7.866420746E-1,-7.117462158E-1
7.646195631E0,-3.473167717E-1,4.086270332E-1,-9.637742043E-1
7.654174498E0,-6.297380328E-1,1.857204437E-1,-1.028277874E0
7.662152584E0,-6.844339371E-1,2.868251801E-1,-7.193527222E-1
7.670135670E0,-3.470923305E-1,3.665175438E-1,-5.093955994E-2
7.678115084E0,2.330525368E-1,1.647868156E-1,8.821258545E-1
7.686094146E0,8.403273821E-1,-2.131986618E-2,1.737907410E0
7.694074420E0,1.284812927E0,-1.961393356E-1,2.207740784E0
7.702053482E0,1.472277880E0,-3.107428551E-1,2.293823242E0
7.710030045E0,1.341719866E0,-4.954771996E-1,2.375046730E0
7.718006021E0,1.129039407E0,-5.364661217E-1,2.098022461E0
7.725986021E0,9.262591004E-1,-5.783510208E-1,1.532386780E0
7.733961256E0,8.164071441E-1,-6.031904221E-1,1.140563011E0
7.741938365E0,8.051095009E-1,-6.663403511E-1,8.734092712E-1
7.749916490E0,8.373527527E-1,-6.512966156E-1,7.012071609E-1
7.757896021E0,8.965081573E-1,-6.395874023E-1,6.766281128E-1
7.765881607E0,9.419580698E-1,-6.308407784E-1,6.126060486E-1
7.773863287E0,9.031041861E-1,-6.066370010E-1,5.526247025E-1
7.781841607E0,8.009827733E-1,-5.334887505E-1,3.625583649E-1
7.789821881E0,5.820119381E-1,-4.672565460E-1,-7.828140259E-2
7.797799615E0,3.671012521E-1,-4.009690285E-1,-3.977050781E-1
7.805777935E0,8.428280056E-2,-3.801174164E-1,-5.589046478E-1
7.813760514E0,-1.836845577E-1,-3.605208397E-1,-5.817260742E-1
7.821744185E0,-5.046907067E-1,-3.810496330E-1,-6.860008240E-1
7.829725748E0,-9.882035255E-1,-5.595145226E-1,-5.663337708E-1
7.837708092E0,-1.412383437E0,-6.885070801E-1,-9.128475189E-2
7.845689068E0,-1.539808154E0,-6.765589714E-1,4.037303925E-1
7.853667350E0,-1.456146359E0,-6.027836800E-1,9.825477600E-1
7.861647076E0,-1.375162125E0,-6.851110458E-1,1.522205353E0
7.869625709E0,-1.251103044E0,-7.140636444E-1,1.760067940E0
7.877602545E0,-1.177349329E0,-7.670707703E-1,2.070103645E0
7.885581607E0,-1.171126485E0,-8.111696243E-1,2.821310997E0
7.893560435E0,-1.111601353E0,-8.533277512E-1,3.670196533E0
7.901539732E0,-9.985875487E-1,-8.787651062E-1,4.190341949E0
7.909521529E0,-8.468204141E-1,-9.510087967E-1,4.554811478E0
7.917504068E0,-6.534982920E-1,-1.072199583E0,4.850907326E0
7.925484889E0,-4.996753335E-1,-1.269988060E0,5.305648804E0
7.933465826E0,-3.693636358E-1,-1.372518063E0,5.481333733E0
7.941448014E0,-2.849691808E-1,-1.502139807E0,5.051103592E0
7.949428834E0,-3.085040748E-1,-1.551392317E0,4.339446068E0
7.957409146E0,-4.208784103E-1,-1.539830923E0,3.633996010E0
7.965387467E0,-4.945246875E-1,-1.593584299E0,2.966679573E0
7.973362545E0,-5.452343225E-1,-1.581531525E0,2.408441544E0
7.981341490E0,-5.413064361E-1,-1.574512959E0,1.791271210E0
7.989315084E0,-5.960088968E-1,-1.573818684E0,1.165897369E0
7.997289498E0,-5.611433983E-1,-1.549944878E0,8.670778275E-1
8.005262896E0,-5.987423062E-1,-1.545669794E0,3.200292587E-1
8.013236295E0,-6.709265113E-1,-1.582677603E0,-1.270847321E-1
8.021209107E0,-6.793258190E-1,-1.622038126E0,-3.981094360E-1
8.029183131E0,-5.834316015E-1,-1.636131525E0,-6.151371002E-1
8.037154068E0,-4.398742020E-1,-1.682071447E0,-8.647007942E-1
8.045126334E0,-3.001183867E-1,-1.785906792E0,-1.162995338E0
8.053098287E0,-1.796250492E-1,-1.866781712E0,-1.104476452E0
8.061073131E0,-1.428553909E-1,-1.902043819E0,-1.090523243E0
8.069048482E0,5.867387354E-2,-1.938769817E0,-1.169570923E0
8.077024107E0,2.414521128E-1,-1.920215130E0,-1.211917877E0
8.084998014E0,2.376319617E-1,-1.947756290E0,-1.049447536E0
8.092975748E0,1.533021331E-1,-1.955568790E0,-8.010601997E-1
8.100955318E0,1.313587278E-1,-1.959663391E0,-7.098937035E-1
8.108931100E0,1.943006516E-1,-1.859981775E0,-7.612833977E-1
8.116908092E0,2.750492692E-1,-1.741961718E0,-8.216643333E-1
8.124881764E0,3.253272176E-1,-1.628703117E0,-9.299321175E-1
8.132856021E0,3.362389207E-1,-1.581530571E0,-1.048379898E0
8.140830982E0,3.224981427E-1,-1.542502403E0,-1.210857391E0
8.148804928E0,2.934291065E-1,-1.515391350E0,-1.260062218E0
8.156775865E0,2.680832148E-1,-1.500829697E0,-1.190800667E0
8.164745357E0,2.317142636E-1,-1.562026024E0,-1.035970688E0
8.172715865E0,1.841069907E-1,-1.603447437E0,-8.241620064E-1
8.180688912E0,7.893967628E-2,-1.592130184E0,-6.937756538E-1
8.188666373E0,-1.661065221E-2,-1.533471584E0,-6.252417564E-1
8.196642193E0,-4.042512178E-2,-1.408138752E0,-7.240309715E-1
8.204622193E0,-6.158739328E-2,-1.321342945E0,-6.695256233E-1
8.212602584E0,-1.126430631E-1,-1.230323792E0,-7.248044014E-1
8.220582232E0,-1.538647115E-1,-1.105115414E0,-8.523364067E-1
8.228560123E0,-2.522130311E-1,-1.030437469E0,-1.139339447E0
8.236540279E0,-3.570689559E-1,-1.024305344E0,-1.203665733E0
8.244515201E0,-3.979918957E-1,-1.019808292E0,-1.155451775E0
8.252492740E0,-3.408310413E-1,-9.891772270E-1,-7.402033806E-1
8.260469146E0,-2.515577674E-1,-9.196085930E-1,-5.026507378E-1
8.268446373E0,-1.486962438E-1,-8.347744942E-1,-4.908223152E-1
8.276422350E0,-1.260643005E-1,-8.005218506E-1,-4.755902290E-1
8.284402076E0,-2.135091722E-1,-7.772645950E-1,-3.717041016E-1
8.292375670E0,-2.609253228E-1,-7.362928391E-1,-3.993158340E-1
8.300346295E0,-3.260214627E-1,-6.955423355E-1,-4.395332336E-1
8.308321100E0,-3.871738613E-1,-6.946034431E-1,-1.755437851E-1
8.316295084E0,-3.428409398E-1,-6.772012711E-1,1.924457550E-1
8.324270787E0,-1.803203523E-1,-5.490689278E-1,3.208875656E-1
8.332249381E0,-9.778434038E-2,-4.835839272E-1,1.912050247E-1
8.340222350E0,-1.024827957E-1,-4.713730812E-1,1.002626419E-1
8.348202975E0,-1.345838308E-1,-4.941468239E-1,-1.765747070E-1
8.356179732E0,-1.366990507E-1,-5.326747894E-1,-1.557493210E-1
8.364156412E0,-9.516394138E-2,-5.163383484E-1,-2.339544296E-1
8.372133639E0,-5.193802714E-2,-4.638462067E-1,-3.300247192E-1
8.380110318E0,2.324482799E-2,-3.844799995E-1,-4.919624329E-1
8.388091100E0,8.223754168E-2,-1.441535950E-1,-8.107657433E-1
8.396066412E0,9.696400166E-2,-6.149864197E-2,-8.712468147E-1
8.404041725E0,8.922055364E-2,-1.598358154E-2,-9.706664085E-1
8.412018404E0,2.975276113E-2,-5.062103271E-3,-1.206471443E0
8.419993482E0,-7.098770142E-2,-9.705734253E-2,-1.094135761E0
8.427969693E0,-1.791290641E-1,-1.157588959E-1,-9.634127617E-1
8.435945709E0,-2.947911918E-1,-3.307867050E-2,-8.713517189E-1
8.443917428E0,-3.578980863E-1,3.078699112E-2,-8.225312233E-1
8.451891021E0,-4.313521683E-1,-3.507280350E-2,-4.908771515E-1
8.459866334E0,-4.521034062E-1,-4.107761383E-2,-2.869338989E-1
8.467843678E0,-4.870939553E-1,-2.086830139E-2,-1.196651459E-1
8.475817232E0,-5.131024122E-1,-4.205560684E-2,-1.749897003E-2
8.483791920E0,-4.972031116E-1,-2.191495895E-2,-8.326625824E-2
8.491768482E0,-5.474605560E-1,6.523132324E-3,-1.098890305E-1
8.499746334E0,-6.630625725E-1,1.392507553E-2,-8.260345459E-2
8.507723365E0,-7.589243650E-1,7.277488708E-3,-1.799755096E-1
8.515699381E0,-7.888892889E-1,1.923799515E-2,-1.573514938E-1
8.523677467E0,-7.847629786E-1,2.505397797E-2,5.004882812E-3
8.531655279E0,-7.689808607E-1,1.452541351E-2,3.939151764E-2
8.539634303E0,-6.952053905E-1,5.565929413E-2,1.079511642E-1
8.547613873E0,-6.107373834E-1,9.105110168E-2,2.729310989E-1
8.555594068E0,-5.049605966E-1,1.677231789E-1,3.912611008E-1
8.563568600E0,-4.879008532E-1,2.385563850E-1,3.128881454E-1
8.571549381E0,-5.863419771E-1,2.251348495E-1,2.793722153E-1
8.579528092E0,-7.490944862E-1,2.124199867E-1,2.579240799E-1
8.587503912E0,-8.038188219E-1,2.341814041E-1,4.016418457E-1
8.595481998E0,-7.593443394E-1,2.919301987E-1,5.564165115E-1
8.603457584E0,-6.628674269E-1,3.856134415E-1,8.324785233E-1
8.611436529E0,-6.134934425E-1,5.050153732E-1,1.072295189E0
8.619415279E0,-5.345553160E-1,7.682471275E-1,1.138064384E0
8.627397428E0,-4.450307488E-1,1.263474464E0,1.113084793E0
8.635376529E0,-4.626276195E-1,1.611779213E0,7.441787720E-1
8.643357428E0,-6.731268167E-1,1.443015099E0,8.516883850E-2
8.651339771E0,-9.129740596E-1,7.660927773E-1,-8.315119743E-1
8.659322975E0,-8.981991410E-1,2.795681953E-1,-1.064003944E0
8.667305514E0,-7.184537053E-1,2.359881401E-1,-9.246735573E-1
8.675287506E0,-5.454908609E-1,6.133222580E-1,-4.149589539E-1
8.683265865E0,-3.613548279E-1,9.376926422E-1,3.835735321E-1
8.691242584E0,-1.206323206E-1,8.271026611E-1,1.502313614E0
8.699220435E0,9.027195722E-2,3.957343102E-1,2.212581635E0
8.707201412E0,2.230034322E-1,-1.237215996E-1,2.796814919E0
8.715180514E0,3.445963860E-1,-5.894813538E-1,3.269131660E0
8.723162428E0,2.538838685E-1,-7.571516037E-1,3.464837074E0
8.731138717E0,-4.909896851E-2,-6.439671516E-1,3.385583878E0
8.739117701E0,-2.963318527E-1,-4.164896011E-1,3.202795029E0
8.747096842E0,-3.091718853E-1,-1.867518425E-1,2.962249756E0
8.755071842E0,-1.284780800E-1,-1.248264313E-1,2.772433281E0
8.763049068E0,1.628006101E-1,-9.229612350E-2,2.635392189E0
8.771026295E0,4.615414143E-1,-1.100444794E-2,2.602892876E0
8.779000592E0,8.093219995E-1,1.304445267E-1,2.568517685E0
8.786974889E0,1.033196092E0,1.886343956E-1,2.498750687E0
8.794947271E0,1.159305811E0,1.454195976E-1,2.306769371E0
8.802920592E0,1.197380424E0,4.373788834E-2,2.227302551E0
8.810891568E0,1.195309043E0,-1.228175163E-1,2.117762566E0
8.818865279E0,1.205965996E0,-3.071665764E-1,2.031359673E0
8.826840201E0,1.270859361E0,-4.245648384E-1,1.959433556E0
8.834816607E0,1.399391413E0,-5.430560112E-1,1.960108757E0
8.842792584E0,1.687257528E0,-5.635933876E-1,2.058312416E0
8.850769576E0,1.989895344E0,-5.212845802E-1,2.092266083E0
8.858748756E0,2.279783726E0,-5.857405663E-1,2.015353203E0
8.866726725E0,2.381252289E0,-7.768726349E-1,2.215992928E0
8.874703404E0,2.444318295E0,-1.010619640E0,2.054057121E0
8.882681412E0,2.505945921E0,-1.196368694E0,1.606492996E0
8.890661998E0,2.451323032E0,-1.293095589E0,1.091887474E0
8.898634537E0,2.347733021E0,-1.366101742E0,6.001758575E-1
8.906611373E0,2.218921900E0,-1.450548172E0,8.618164062E-2
8.914589459E0,2.189869404E0,-1.581171036E0,-1.939792633E-1
8.922564225E0,2.190964222E0,-1.702493191E0,-5.248446465E-1
8.930542779E0,2.190167904E0,-1.683195114E0,-8.553018570E-1
8.938520904E0,2.092443466E0,-1.699317932E0,-1.080954075E0
8.946500514E0,1.834786654E0,-1.765044689E0,-1.278640747E0
8.954476568E0,1.574153066E0,-1.881967068E0,-1.294052124E0
8.962453678E0,1.289898396E0,-2.031687498E0,-1.164983749E0
8.970431998E0,1.051519871E0,-2.100021601E0,-1.063296795E0
8.978410943E0,8.843362331E-1,-2.117038012E0,-7.917294502E-1
8.986386607E0,7.439043522E-1,-2.094022036E0,-4.208722115E-1
8.994358326E0,6.299056411E-1,-2.012655497E0,-3.631591797E-2
9.002335396E0,4.922195971E-1,-1.961181164E0,2.724957466E-1
9.010309771E0,3.170974255E-1,-1.941632748E0,4.735460281E-1
9.018285045E0,1.178175434E-1,-1.974045277E0,5.722451210E-1
9.026259498E0,-1.330807805E-3,-1.992528439E0,4.545001984E-1
9.034233365E0,-1.329150051E-1,-1.972822189E0,1.344146729E-1
9.042205162E0,-2.156320214E-1,-1.932646751E0,-1.400485039E-1
9.050180826E0,-2.939582467E-1,-1.880057335E0,-3.173632622E-1
9.058158092E0,-3.060363829E-1,-1.817895889E0,-4.181122780E-1
9.066136060E0,-3.122287989E-1,-1.826280594E0,-3.953309059E-1
9.074109342E0,-1.750882715E-1,-1.800005913E0,-2.632045746E-1
9.082081881E0,1.290623844E-2,-1.719051361E0,-3.144259453E-1
9.090057232E0,1.652943194E-1,-1.645082474E0,-5.303201675E-1
9.098035592E0,2.517755032E-1,-1.577364922E0,-7.678451538E-1
9.106007467E0,2.103124261E-1,-1.555264950E0,-9.974861145E-1
9.113981490E0,1.639925838E-1,-1.560204506E0,-1.185308933E0
9.121956021E0,1.534875631E-1,-1.510910988E0,-1.283380508E0
9.129934264E0,1.731310040E-1,-1.507704258E0,-1.277530193E0
9.137907701E0,2.674027085E-1,-1.503046036E0,-1.153093815E0
9.145883053E0,4.619862437E-1,-1.411018372E0,-1.130105495E0
9.153858717E0,5.909478068E-1,-1.298142910E0,-1.079645157E0
9.161833873E0,7.121645212E-1,-1.225333691E0,-1.064981937E0
9.169806060E0,7.408478856E-1,-1.192322731E0,-9.953246117E-1
9.177780123E0,7.493568063E-1,-1.169627190E0,-9.095277786E-1
9.185756256E0,7.271598577E-1,-1.123407841E0,-8.461260796E-1
9.193730592E0,6.494008899E-1,-1.079035282E0,-7.657003403E-1
9.201707154E0,6.397209167E-1,-1.036856651E0,-6.631698608E-1
9.209683521E0,6.548165083E-1,-9.687829018E-1,-4.709916115E-1
9.217655865E0,7.326043844E-1,-9.106845856E-1,-2.209267616E-1
9.225634381E0,7.736886740E-1,-8.352165222E-1,-4.123735428E-2
9.233612271E0,7.293000817E-1,-8.150758743E-1,-7.018947601E-2
9.241589303E0,6.358128190E-1,-8.115220070E-1,-1.405653954E-1
9.249567584E0,5.024196506E-1,-7.859253883E-1,-1.807894707E-1
9.257547389E0,4.732084572E-1,-6.736793518E-1,-3.362355232E-1
9.265523443E0,5.051479340E-1,-5.311164856E-1,-3.730707169E-1
9.273499185E0,5.694374442E-1,-3.952932358E-1,-3.687839508E-1
9.281476646E0,6.665601730E-1,-3.136343956E-1,-3.092956543E-1
9.289455084E0,7.355281711E-1,-3.063850403E-1,-1.315250397E-1
9.297431607E0,7.830224037E-1,-3.654575348E-1,9.380245209E-2
9.305405553E0,8.525850773E-1,-3.391809464E-1,2.001991272E-1
9.313386373E0,9.198267460E-1,-2.530632019E-1,1.982908249E-1
9.321364107E0,9.114623666E-1,-1.990165710E-1,1.221933365E-1
9.329343443E0,8.214625120E-1,-1.920056343E-1,-1.339435577E-2
9.337320865E0,6.871966720E-1,-1.749253273E-1,-2.417964935E-1
9.345292310E0,6.093186140E-1,-1.036834717E-1,-4.248657227E-1
9.353266021E0,6.055062413E-1,1.821231842E-2,-5.826649666E-1
9.361238248E0,6.565342546E-1,1.871581078E-1,-6.824984550E-1
9.369216568E0,6.244927049E-1,2.903103828E-1,-6.922278404E-1
9.377187662E0,6.243551970E-1,3.810520172E-1,-6.793551445E-1
9.385163873E0,6.820077300E-1,4.399027824E-1,-6.053013802E-1
9.393140162E0,7.695639729E-1,4.624152184E-1,-4.798364639E-1
9.401117310E0,9.313020706E-1,5.099368095E-1,-3.549900055E-1
9.409096217E0,9.938260317E-1,5.122947693E-1,-2.325267792E-1
9.417075709E0,1.031469584E0,4.836888313E-1,-1.279449463E-2
9.425052428E0,1.020907521E0,4.185872078E-1,1.562910080E-1
9.433034498E0,1.052715778E0,4.636368752E-1,2.286787033E-1
9.441014967E0,1.043671489E0,4.945888519E-1,2.610406876E-1
9.448993990E0,9.891257882E-1,5.023822784E-1,3.009328842E-1
9.456975279E0,9.172935486E-1,5.110526085E-1,3.626661301E-1
9.464956451E0,7.805509567E-1,4.866175652E-1,4.322128296E-1
9.472933326E0,6.730234623E-1,4.587106705E-1,4.323444366E-1
9.480912662E0,6.126250029E-1,4.523372650E-1,3.240261078E-1
9.488896764E0,5.752309561E-1,4.736180305E-1,1.973476410E-1
9.496878951E0,5.705543160E-1,4.808363914E-1,9.926700592E-2
9.504857545E0,5.545246601E-1,4.756579399E-1,1.243667603E-1
9.512836060E0,5.319558382E-1,3.925728798E-1,4.439611435E-1
9.520815826E0,6.395417452E-1,3.313784599E-1,8.383941650E-1
9.528793053E0,8.175450563E-1,3.207669258E-1,1.140203476E0
9.536766451E0,9.821830988E-1,4.733586311E-1,1.284081459E0
9.544742584E0,1.114041328E0,8.954701424E-1,1.292106628E0
9.552720865E0,8.810346723E-1,1.322813511E0,9.818363190E-1
9.560700826E0,2.347410917E-1,1.124750614E0,3.950185776E-1
9.568682389E0,-4.648017883E-1,5.531334877E-1,-1.150321960E-2
9.576663639E0,-9.707865119E-1,2.412385941E-1,-3.052253723E-1
9.584642271E0,-1.092954516E0,3.964715004E-1,-4.095377922E-1
9.592619732E0,-8.077932596E-1,6.334924698E-1,-5.204248428E-2
9.600596842E0,-3.176534772E-1,6.762609482E-1,8.003158569E-1
9.608576060E0,3.781666756E-1,3.525695801E-1,1.875167370E0
9.616553248E0,1.212818742E0,-2.491722107E-1,3.117820740E0
9.624528170E0,1.848308086E0,-6.237039566E-1,3.853869438E0
9.632506842E0,2.287856340E0,-8.008251190E-1,4.302991867E0
9.640487740E0,2.416573763E0,-9.057812691E-1,4.622220039E0
9.648465553E0,2.205463886E0,-9.902758598E-1,4.789935112E0
9.656444185E0,1.774183869E0,-1.153534889E0,4.654998779E0
9.664421217E0,1.165196061E0,-1.370598316E0,4.178085327E0
9.672398560E0,6.227024198E-1,-1.525094032E0,3.606991768E0
9.680377701E0,1.490326226E-1,-1.672134638E0,2.820347786E0
9.688357271E0,-1.698747873E-1,-1.696388960E0,2.130507469E0
9.696335709E0,-4.752139449E-1,-1.608808041E0,1.788836479E0
9.704312271E0,-6.143667698E-1,-1.436857700E0,1.789643288E0
9.712291256E0,-4.206224382E-1,-1.214967251E0,1.884737968E0
9.720270514E0,-1.183892190E-1,-1.074067116E0,2.037204742E0
9.728247310E0,4.684972763E-2,-1.074029922E0,2.119590759E0
9.736224342E0,-3.380876780E-2,-1.153362751E0,1.998433113E0
9.744203639E0,-3.227944374E-1,-1.269988060E0,1.746264458E0
9.752182623E0,-6.954182386E-1,-1.394921780E0,1.535061836E0
9.760165631E0,-9.972572923E-1,-1.547400475E0,1.340726852E0
9.768144928E0,-1.206420660E0,-1.646475315E0,1.254385948E0
9.776125084E0,-1.228152633E0,-1.671551228E0,1.217526436E0
9.784108482E0,-1.068167448E0,-1.657120228E0,1.297763824E0
9.792086803E0,-7.984178662E-1,-1.582219601E0,1.235271454E0
9.800063560E0,-5.951122642E-1,-1.585433483E0,1.192747116E0
9.808042271E0,-4.720781446E-1,-1.655436516E0,1.092414856E0
9.816016920E0,-4.092463851E-1,-1.670667171E0,9.474039078E-1
9.823990670E0,-3.254258633E-1,-1.686584949E0,7.802019119E-1
9.831964928E0,-1.969832778E-1,-1.705473423E0,7.326030731E-1
9.839941217E0,-1.812499762E-2,-1.794552326E0,7.856278419E-1
9.847927506E0,2.463461757E-1,-1.883596182E0,9.501113892E-1
9.855913326E0,5.745140314E-1,-1.969331026E0,1.011830807E0
9.863897935E0,8.079344630E-1,-2.054029703E0,9.340505600E-1
9.871882271E0,9.184687734E-1,-2.159138680E0,9.195561409E-1
9.879872701E0,9.828062057E-1,-2.195808411E0,7.926921844E-1
9.887852818E0,9.533549547E-1,-2.170429230E0,5.785746574E-1
9.895838014E0,7.393885255E-1,-2.075600386E0,1.399374008E-1
9.903823287E0,5.170555115E-1,-2.020910978E0,-2.315406799E-1
9.911802975E0,3.870125413E-1,-1.924263477E0,-6.320295334E-1
9.919778795E0,2.671985626E-1,-1.879160881E0,-1.096664906E0
9.927756139E0,2.478153706E-1,-1.834174633E0,-1.335957050E0
9.935730318E0,2.325235605E-1,-1.751871109E0,-1.405544758E0
9.943701959E0,1.798072457E-1,-1.621198654E0,-1.349520206E0
9.951675396E0,9.035158157E-2,-1.552188396E0,-1.268516541E0
9.959648795E0,-2.547359467E-2,-1.525214672E0,-1.181997299E0
9.967624810E0,-1.490868330E-1,-1.575642586E0,-1.055152416E0
9.975598756E0,-2.587013245E-1,-1.674708843E0,-8.547401428E-1
9.983572818E0,-4.040739536E-1,-1.675580978E0,-5.175018311E-1
9.991543639E0,-4.023057818E-1,-1.599482536E0,-1.471362114E-1
9.999513912E0,-3.469663262E-1,-1.519505978E0,7.080173492E-2
1.000748657E1,-3.195655942E-1,-1.487776756E0,5.928325653E-2
1.001546266E1,-3.642361760E-1,-1.528139591E0,9.652137756E-3
1.002343833E1,-3.759409785E-1,-1.515814781E0,-1.609182358E-2
1.003141583E1,-3.467412591E-1,-1.498170376E0,-1.286659241E-1
1.003938922E1,-3.069705367E-1,-1.478647709E0,-1.473436356E-1
1.004736649E1,-3.052006364E-1,-1.399371147E0,-1.778731346E-1
1.005534274E1,-2.600396276E-1,-1.304023743E0,-1.527729034E-1
1.006332001E1,-2.238142490E-1,-1.259588718E0,-1.055502892E-1
1.007129485E1,-1.671206951E-1,-1.213140965E0,-3.150939941E-2
1.007927016E1,-1.412104368E-1,-1.198154926E0,7.429838181E-2
1.008725032E1,-1.310244799E-1,-1.252654076E0,2.117629051E-1
1.009523044E1,-9.671628475E-2,-1.281699657E0,3.625435829E-1
1.010322048E1,-5.539953709E-2,-1.262214184E0,3.934488297E-1
1.011120774E1,-6.138503551E-3,-1.256513119E0,4.913768768E-1
1.011919106E1,5.051338673E-2,-1.284171104E0,5.560069084E-1
1.012717360E1,1.340698600E-1,-1.282864094E0,6.974554062E-1
1.013515469E1,1.928474903E-1,-1.228982925E0,7.436852455E-1
1.014313668E1,2.118612528E-1,-1.103383541E0,6.850571632E-1
1.015111727E1,1.124719977E-1,-9.690823555E-1,4.117774963E-1
1.015909794E1,-3.671020269E-2,-8.884954453E-1,1.151351929E-1
1.016707641E1,-2.527377605E-1,-9.006304741E-1,-3.228425980E-2
1.017505676E1,-3.897712827E-1,-9.204454422E-1,-1.688127518E-1
1.018303524E1,-3.701148629E-1,-8.945708275E-1,-2.900428772E-1
1.019101880E1,-2.356250286E-1,-8.076519966E-1,-4.827156067E-1
1.019900106E1,-4.620647430E-2,-7.250800133E-1,-7.046418190E-1
1.020698270E1,1.229968667E-1,-6.740670204E-1,-8.370156288E-1
1.021496219E1,2.541747093E-1,-6.669955254E-1,-8.188543320E-1
1.022293856E1,2.573170662E-1,-6.227869987E-1,-6.545972824E-1
1.023091645E1,2.335173488E-1,-6.037001610E-1,-4.207749367E-1
1.023889567E1,2.030440569E-1,-6.152095795E-1,-3.060340881E-2
1.024687348E1,2.035473585E-1,-5.683584213E-1,3.113842010E-1
1.025485137E1,2.201452553E-1,-4.740142822E-1,5.964536667E-1
1.026282829E1,2.190365493E-1,-4.007654190E-1,9.022417068E-1
1.027080786E1,1.600400805E-1,-3.602652550E-1,1.158155441E0
1.027879055E1,1.134245396E-1,-3.638639450E-1,1.202432632E0
1.028677290E1,1.039358377E-1,-3.482217789E-1,1.015220642E0
1.029475258E1,5.926644802E-2,-3.371644020E-1,7.927141190E-1
1.030273278E1,3.644758463E-2,-3.153657913E-1,5.246601105E-1
1.031071247E1,6.541579962E-2,-2.711367607E-1,2.288780212E-1
1.031869040E1,1.323812008E-1,-2.079792023E-1,-2.842235565E-2
1.032666762E1,1.378161013E-1,-1.770877838E-1,-2.433815002E-1
1.033464829E1,6.713309884E-2,-1.784543991E-1,-3.585643768E-1
1.034262993E1,4.548880458E-2,-1.161451340E-1,-4.602384567E-1
1.035061227E1,6.058573723E-3,-1.105437279E-1,-5.048499107E-1
1.035859145E1,2.155840397E-3,-1.045207977E-1,-4.729824066E-1
1.036656805E1,-5.173107982E-2,-1.605172157E-1,-5.560116768E-1
1.037454637E1,-8.952698112E-2,-1.782464981E-1,-5.622887611E-1
1.038252637E1,-7.837811112E-2,-1.913137436E-1,-5.779871941E-1
1.039050344E1,-6.199538708E-2,-2.104940414E-1,-5.017719269E-1
1.039848106E1,-6.500744820E-2,-2.026557922E-1,-4.722871780E-1
1.040646426E1,-9.850496054E-2,-1.633424759E-1,-4.845933914E-1
1.041444743E1,-1.107442677E-1,-1.014938354E-1,-3.093204498E-1
1.042243278E1,-9.180691838E-2,-6.574821472E-2,-5.605316162E-2
1.043042083E1,-1.246011257E-2,-2.307128906E-2,1.702394485E-1
1.043840458E1,7.086026669E-2,1.714038849E-2,2.881011963E-1
1.044639087E1,1.722825766E-1,8.895492554E-2,4.551858902E-1
1.045437891E1,2.976451218E-1,4.682021141E-1,5.387907028E-1
1.046236954E1,3.619338870E-1,8.569979668E-1,3.864698410E-1
1.047035719E1,2.946668565E-1,8.860878944E-1,-1.068143845E-1
1.047834215E1,5.020678043E-2,4.343590736E-1,-4.789605141E-1
1.048632676E1,-1.574658155E-1,-1.669354439E-1,-7.961983681E-1
1.049430993E1,-1.012904793E-1,-2.367291451E-1,-7.466554642E-1
1.050229661E1,9.030862898E-2,2.425932884E-1,-6.390223503E-1
1.051028524E1,3.002499044E-1,6.254777908E-1,-3.398523331E-1
1.051827180E1,4.634628892E-1,4.394378662E-1,3.940124512E-1
1.052626016E1,5.180971622E-1,-8.425760269E-2,1.091044426E0
1.053424786E1,5.517670512E-1,-6.617918015E-1,1.988510132E0
1.054223477E1,6.200219989E-1,-9.192838669E-1,2.596371651E0
1.055022044E1,6.179739833E-1,-9.378504753E-1,3.157188416E0
1.055820083E1,5.175650716E-1,-8.331904411E-1,3.487925529E0
1.056618168E1,4.156270623E-1,-7.744250298E-1,3.484081268E0
1.057416028E1,3.324145079E-1,-7.626967430E-1,3.289872169E0
1.058213704E1,1.595024467E-1,-8.205337524E-1,3.141972542E0
1.059011208E1,3.849003464E-2,-8.421416283E-1,2.901078224E0
1.059808942E1,-3.841228783E-2,-7.582583427E-1,2.554450035E0
1.060606962E1,2.219721675E-3,-5.938944817E-1,2.176361084E0
1.061404731E1,5.146072060E-2,-4.278869629E-1,1.693447113E0
1.062202770E1,6.511091441E-2,-3.047637939E-1,1.137126923E0
1.063000805E1,7.850465178E-2,-2.103085518E-1,6.336908340E-1
1.063798786E1,9.344430268E-2,-1.305303574E-1,3.286266327E-1
1.064596497E1,1.157772765E-1,-1.262159348E-1,1.921539307E-1
1.065394383E1,1.852731407E-1,-1.426086426E-1,1.509552002E-1
1.066192028E1,3.187153935E-1,-1.838159561E-1,1.900939941E-1
1.066989520E1,4.486730099E-1,-2.808566093E-1,3.063268661E-1
1.067787294E1,6.029398441E-1,-3.966627121E-1,4.526166916E-1
1.068584751E1,8.332729340E-1,-4.889464378E-1,6.391277313E-1
1.069382450E1,1.097003460E0,-4.786715508E-1,8.100385666E-1
1.070179903E1,1.293428183E0,-4.909954071E-1,9.801921844E-1
1.070977415E1,1.523284197E0,-5.521860123E-1,1.381030083E0
1.071774918E1,1.806663990E0,-5.586333275E-1,1.592309952E0
1.072572555E1,2.107153177E0,-5.551805496E-1,1.701318741E0
1.073370278E1,2.301926851E0,-5.895705223E-1,1.803608894E0
1.074167860E1,2.320421934E0,-6.759448051E-1,1.793589592E0
1.074965786E1,2.259781599E0,-7.845287323E-1,1.574670792E0
1.075763567E1,2.138727427E0,-8.411283493E-1,1.255359650E0
1.076561036E1,1.985064268E0,-8.967313766E-1,1.026061058E0
1.077358548E1,1.800017595E0,-8.887448311E-1,9.726743698E-1
1.078156110E1,1.615790725E0,-9.748268127E-1,7.310943604E-1
1.078953813E1,1.415014863E0,-1.084139347E0,6.469392776E-1
1.079751872E1,1.258218884E0,-1.169494629E0,5.867042542E-1
1.080549751E1,1.176480651E0,-1.212497711E0,6.180667877E-1
1.081347262E1,1.192967057E0,-1.209987640E0,7.278127670E-1
1.082144696E1,1.150311589E0,-1.191582203E0,7.824630737E-1
1.082942528E1,1.187840104E0,-1.148689747E0,8.257923126E-1
1.083739876E1,1.188006639E0,-1.167052269E0,5.653400421E-1
1.084537536E1,1.045102358E0,-1.291621685E0,2.576637268E-1
1.085335145E1,8.426113725E-1,-1.444864273E0,9.375572205E-2
1.086133169E1,7.175132036E-1,-1.449417591E0,1.129770279E-2
1.086931048E1,6.719518900E-1,-1.454876423E0,-1.038951874E-1
1.087728665E1,6.123491526E-1,-1.466300011E0,-2.086000443E-1
1.088526489E1,5.347629786E-1,-1.534564972E0,-4.286346436E-1
1.089324485E1,4.055889249E-1,-1.615199566E0,-5.638895035E-1
1.090122626E1,3.055253327E-1,-1.625555038E0,-6.966681480E-1
1.090920360E1,2.144900262E-1,-1.646491528E0,-6.885080338E-1
1.091717950E1,2.054515481E-1,-1.629504681E0,-5.351395607E-1
1.092515918E1,3.417516947E-1,-1.583312988E0,-3.234329224E-1
1.093313915E1,1.306483269E0,-1.097858429E0,-6.218733788E-1
1.094111598E1,1.487245917E0,-1.018436432E0,-2.542095184E-1
1.094909251E1,1.498820543E0,-9.445133209E-1,5.772972107E-2
1.095707051E1,1.330625892E0,-1.423149586E0,5.447115898E-1
1.096504762E1,1.160323143E0,-1.328824043E0,8.139419556E-1
1.097302641E1,1.057408452E0,-1.244438648E0,8.679380417E-1
1.098100481E1,9.313066602E-1,-1.304692745E0,4.533953667E-1
1.098898301E1,8.241311312E-1,-1.396561146E0,-1.217441559E-1
1.099696329E1,7.750986814E-1,-1.356788635E0,-2.688074112E-1
1.100494473E1,6.061021686E-1,-1.317996979E0,-3.719367981E-1
1.101292493E1,3.749234378E-1,-1.198951721E0,-2.538909912E-1
1.102090801E1,1.425374150E-1,-1.162856579E0,-1.490316391E-1
1.102889032E1,1.769230887E-2,-1.214993000E0,9.140872955E-2
1.103687075E1,-6.971880794E-4,-1.279680729E0,3.435640335E-1
1.104484774E1,5.569382757E-2,-1.284835339E0,4.109115601E-1
1.105282723E1,1.875745505E-1,-1.177189827E0,3.265399933E-1
1.106080903E1,3.380334079E-1,-1.007825851E0,1.707334518E-1
1.106878923E1,4.786241949E-1,-8.671426773E-1,-4.248619080E-3
1.107676614E1,6.250288486E-1,-7.496047020E-1,-2.037391663E-1
1.108474520E1,7.244738340E-1,-6.507863998E-1,-3.556628227E-1
1.109272180E1,7.383350730E-1,-5.603508949E-1,-5.228004456E-1
1.110070231E1,6.615516543E-1,-5.977697372E-1,-5.233597755E-1
1.110868450E1,5.718439221E-1,-6.435523033E-1,-4.338235855E-1
1.111666672E1,4.312545657E-1,-6.723008156E-1,-4.275994301E-1
1.112464911E1,3.053616881E-1,-6.328206062E-1,-3.934879303E-1
1.113263075E1,2.226570994E-1,-5.484919548E-1,-3.941297531E-1
1.114060696E1,2.016938329E-1,-4.577054977E-1,-4.390196800E-1
1.114858348E1,2.471402436E-1,-3.417091370E-1,-4.560437202E-1
1.115656368E1,3.245002627E-1,-2.522897720E-1,-4.074897766E-1
1.116454325E1,3.864555359E-1,-2.622117996E-1,-3.070573807E-1
1.117251848E1,4.434471130E-1,-3.093428612E-1,-1.738290787E-1
1.118049196E1,4.926655889E-1,-3.317065239E-1,2.108955383E-2
1.118846786E1,5.494327545E-1,-3.294625282E-1,1.149902344E-1
1.119644360E1,5.789327025E-1,-2.795615196E-1,1.851310730E-1
1.120442235E1,5.753219724E-1,-1.724047661E-1,1.357431412E-1
1.121239985E1,5.842201710E-1,-9.087324142E-2,2.168664932E-1
1.122037801E1,5.954204798E-1,3.220081329E-3,2.897167206E-1
1.122835704E1,6.576933861E-1,4.721403122E-2,3.928537369E-1
1.123633587E1,7.246569395E-1,1.277723312E-1,5.067663193E-1
1.124431352E1,8.283404112E-1,2.450580597E-1,5.642328262E-1
1.125229395E1,8.939989805E-1,3.136897087E-1,5.167827606E-1
1.126027329E1,8.875682354E-1,3.009901047E-1,4.213256836E-1
1.126824973E1,8.467584252E-1,2.124795914E-1,3.061285019E-1
1.127622708E1,7.598768473E-1,1.289334297E-1,1.812353134E-1
1.128420235E1,6.679472327E-1,7.492542267E-3,1.614484787E-1
1.129218376E1,5.226099491E-1,-9.491157532E-2,1.705121994E-1
1.130016231E1,3.969839215E-1,-1.831655502E-1,2.132606506E-1
1.130813700E1,2.872448862E-1,-2.140207291E-1,7.890224457E-2
1.131611575E1,1.589930356E-1,-1.672687531E-1,-3.214168549E-2
1.132409048E1,1.463170946E-1,-9.012460709E-2,-1.825466156E-1
1.133206676E1,1.104679108E-1,2.764225006E-2,-3.344268799E-1
1.134004672E1,2.453238470E-3,4.231357574E-2,-4.446191788E-1
1.134802344E1,-1.208699271E-1,4.453802109E-2,-4.410734177E-1
1.135600067E1,-2.809982300E-1,5.998849869E-2,-3.122234344E-1
1.136398032E1,-4.064082801E-1,1.306014061E-1,-1.483259201E-1
1.137196086E1,-5.025003552E-1,1.548252106E-1,4.165363312E-2
1.137993868E1,-5.252586603E-1,2.050957680E-1,1.759052277E-1
1.138791465E1,-4.552211165E-1,2.144689560E-1,2.543478012E-1
1.139589145E1,-1.808496118E-1,3.360543251E-1,4.686069489E-1
1.140386825E1,1.525147706E-1,3.787641525E-1,6.699609756E-1
1.141184434E1,5.424810052E-1,5.202889442E-1,6.904888153E-1
1.141981923E1,1.038444519E0,5.630040169E-1,6.411790848E-1
1.142779743E1,1.389430761E0,5.593247414E-1,4.647378922E-1
1.143578044E1,1.652137399E0,5.222496986E-1,2.003889084E-1
1.144376212E1,1.732847810E0,4.372162819E-1,-1.134204865E-1
1.145174157E1,1.720085263E0,2.851557732E-1,-4.863042831E-1
1.145972325E1,1.635287881E0,7.549095154E-2,-9.372973442E-1
1.146770227E1,1.545841813E0,-1.024570465E-1,-1.334339142E0
1.147567786E1,1.501568794E0,-2.578277588E-1,-1.819686413E0
1.148365528E1,1.432345033E0,-4.400515556E-1,-2.194423676E0
1.149163579E1,1.461880565E0,-4.748125076E-1,-2.191777229E0
1.149961516E1,1.588630557E0,-4.798154831E-1,-1.827450275E0
1.150759040E1,1.680874109E0,-5.141673088E-1,-1.445013046E0
1.151556669E1,1.729956627E0,-6.130867004E-1,-1.062342644E0
1.152354458E1,1.676369429E0,-6.643786430E-1,-8.307299614E-1
1.153152380E1,1.530722618E0,-6.424541473E-1,-6.475052834E-1
1.153950313E1,1.299118996E0,-6.736145020E-1,-4.732341766E-1
1.154748008E1,1.090609312E0,-7.496418953E-1,-3.310327530E-1
1.155545684E1,9.954140186E-1,-8.192801476E-1,-1.960906982E-1
1.156342848E1,9.375342131E-1,-8.601045609E-1,-6.744480133E-2
1.157139938E1,8.927521706E-1,-8.237948418E-1,2.583217621E-2
1.157937376E1,8.202857971E-1,-8.388872147E-1,4.506587982E-2
1.158734825E1,6.522200704E-1,-8.367204666E-1,-2.454824448E-1
1.159532219E1,4.493452311E-1,-7.926135063E-1,-4.824819565E-1
1.160329852E1,2.661896646E-1,-7.946963310E-1,-6.201653481E-1
1.161127340E1,2.855610847E-2,-9.135217667E-1,-6.021518707E-1
1.161924758E1,-1.353891492E-1,-1.026313305E0,-3.025722504E-1
1.162722426E1,-2.027906775E-1,-8.796792030E-1,-7.041072845E-2
1.163520274E1,-1.726914644E-1,-3.682613373E-1,-2.642440796E-1
1.164318130E1,-2.935851216E-1,1.880664825E-1,-1.114872932E0
1.165115864E1,-4.350997806E-1,5.906610489E-1,-2.108585358E0
1.165913497E1,-2.737598419E-1,6.467809677E-1,-2.516327858E0
1.166711180E1,1.525394320E-1,6.057400703E-1,-2.159628868E0
1.167508833E1,9.314873815E-1,4.826545715E-1,-3.755006790E-1
1.168306184E1,1.655713797E0,2.768812180E-1,1.880041122E0
1.169103747E1,2.113524437E0,1.922621727E-1,3.971669197E0
1.169901301E1,2.377976418E0,-6.850290298E-2,5.470705032E0
1.170699063E1,2.687388420E0,-2.048416138E-1,5.851240158E0
1.171496563E1,2.850632429E0,-3.922452927E-1,5.344653130E0
1.172293747E1,2.764579296E0,-1.825914383E-1,3.883691788E0
1.173091399E1,2.454132795E0,2.532725334E-1,2.457703590E0
1.173889016E1,1.965802312E0,6.148757935E-1,1.017029762E0
1.174686528E1,1.814708352E0,8.840537071E-1,1.446390152E-1
1.175484278E1,1.829957008E0,1.001103401E0,-3.304948807E-1
1.176282016E1,1.728577137E0,9.220304489E-1,-5.179672241E-1
1.177079610E1,1.584574461E0,6.721329689E-1,-5.164279938E-1
1.177877290E1,1.421047926E0,3.002538681E-1,-4.923162460E-1
1.178674782E1,1.237344742E0,-4.460287094E-2,-5.226335526E-1
1.179472348E1,1.123831630E0,-2.474222183E-1,-5.167808533E-1
1.180269973E1,1.028038144E0,-2.647337914E-1,-6.379303932E-1
1.181067743E1,9.704123139E-1,-1.237854958E-1,-8.458991051E-1
1.181865227E1,9.507789612E-1,9.190940857E-2,-1.087038040E0
1.182663133E1,8.667730689E-1,2.622046471E-1,-1.395246506E0
1.183460825E1,6.786522865E-1,2.032208443E-1,-1.506637096E0
1.184258766E1,4.429453611E-1,-9.095668793E-3,-1.325750351E0
1.185056637E1,2.369785309E-1,-3.322167397E-1,-6.277279854E-1
1.185854540E1,1.679689884E-1,-6.476144791E-1,2.538089752E-1
1.186652477E1,2.025297284E-1,-1.017079353E0,1.213841438E0
1.187450235E1,2.564836740E-1,-1.278553009E0,2.009493828E0
1.188248102E1,3.611254692E-1,-1.471996784E0,2.676210403E0
1.189046450E1,4.856440425E-1,-1.510777712E0,3.045225143E0
1.189844758E1,6.358911395E-1,-1.406903267E0,2.874020576E0
1.190643004E1,6.844843626E-1,-1.140019417E0,2.123268127E0
1.191441270E1,4.602091908E-1,-7.838330269E-1,9.290761948E-1
1.192239368E1,1.150392294E-1,-5.264554024E-1,9.237766266E-2
1.193037313E1,-3.879575729E-1,-3.202800751E-1,-3.973979950E-1
1.193834852E1,-7.657803297E-1,-2.508072853E-1,-5.838317871E-1
1.194632165E1,-1.002179146E0,-2.836523056E-1,-5.725784302E-1
1.195429622E1,-1.133825779E0,-3.065390587E-1,-5.035772324E-1
1.196226915E1,-1.123357058E0,-3.318090439E-1,-3.918256760E-1
1.197024219E1,-1.039266229E0,-4.597849846E-1,5.521392822E-2
1.197821637E1,-8.834453821E-1,-6.757354736E-1,6.702594757E-1
1.198619399E1,-6.691380739E-1,-7.952361107E-1,1.234737396E0
1.199417016E1,-4.155580401E-1,-9.022498131E-1,1.721533775E0
1.200214829E1,-1.033499837E-1,-9.668908119E-1,2.271690369E0
1.201012372E1,1.130867600E-1,-9.637875557E-1,2.566114426E0
1.201809731E1,3.139883876E-1,-9.426112175E-1,2.976970673E0
1.202607176E1,5.009636283E-1,-8.194146156E-1,3.304357529E0
1.203404251E1,6.790108681E-1,-6.778302193E-1,3.487121582E0
1.204201508E1,9.149553776E-1,-3.834505081E-1,3.364807129E0
1.204998965E1,1.054974318E0,-3.446769714E-2,2.931301117E0
1.205796247E1,1.146831036E0,2.630705833E-1,2.241931915E0
1.206593923E1,1.172662377E0,4.504909515E-1,1.563157082E0
1.207391637E1,1.174315214E0,5.063853264E-1,9.248018265E-1
1.208188856E1,1.133594275E0,4.928798676E-1,2.236938477E-1
1.208985958E1,1.124177694E0,5.047249794E-1,-3.751487732E-1
1.209783048E1,1.130613685E0,4.543957710E-1,-7.207889557E-1
1.210580544E1,1.117445469E0,3.207201958E-1,-6.811504364E-1
1.211378094E1,1.133779645E0,1.141691208E-1,-2.155733109E-1
1.212175751E1,1.172204018E0,-9.185314178E-2,1.704740524E-1
1.212972993E1,1.264240265E0,-2.790980339E-1,5.639781952E-1
1.213770364E1,1.318106174E0,-3.931665421E-1,7.895565033E-1
1.214567376E1,1.334764719E0,-5.174427032E-1,7.335910797E-1
1.215364481E1,1.223185062E0,-6.332612038E-1,5.975227356E-1
1.216161645E1,1.076574683E0,-7.708339691E-1,3.772439957E-1
1.216960219E1,9.114739895E-1,-9.062705040E-1,-4.717826843E-2
1.217755704E1,7.435899377E-1,-9.587521553E-1,-4.075956345E-1
1.218553032E1,6.870300174E-1,-9.189019203E-1,-7.327237129E-1
1.219350364E1,5.835198164E-1,-8.345718384E-1,-1.070496082E0
1.220147743E1,5.186647177E-1,-8.339629173E-1,-1.225320816E0
1.220945422E1,4.340817928E-1,-8.672065735E-1,-1.342190742E0
1.221743024E1,3.398199677E-1,-9.092559814E-1,-1.139233112E0
1.222540227E1,3.261034489E-1,-8.971643448E-1,-9.228720665E-1
1.223337926E1,3.442482352E-1,-9.197101593E-1,-8.807797432E-1
1.224135231E1,3.014784455E-1,-8.998541832E-1,-9.745736122E-1
1.224932458E1,2.544218302E-1,-8.809876442E-1,-1.070085049E0
1.225729907E1,2.235854268E-1,-8.447203636E-1,-1.167250633E0
1.226527395E1,1.495679021E-1,-8.691191673E-1,-1.169619560E0
1.227324516E1,1.013067961E-1,-8.702406883E-1,-1.191068649E0
1.228121950E1,8.987176418E-2,-7.674531937E-1,-1.217188835E0
1.228919212E1,8.553278446E-2,-6.374721527E-1,-1.272002220E0
1.229716684E1,1.315831542E-1,-4.947676659E-1,-1.384152412E0
1.230514231E1,2.680335641E-1,-3.802871704E-1,-1.420680046E0
1.231311977E1,3.452442288E-1,-2.433218956E-1,-1.497830391E0
1.232109645E1,3.540580869E-1,-2.703700066E-1,-1.337977409E0
1.232907586E1,3.873387575E-1,-2.029457092E-1,-1.314319611E0
1.233705227E1,3.859785795E-1,-1.556963921E-1,-1.293142319E0
1.234503212E1,4.055064321E-1,-1.506962776E-1,-1.146536350E0
1.235300907E1,4.756188095E-1,-1.459083557E-1,-8.545050621E-1
1.236098395E1,6.110876203E-1,-1.672558784E-1,-5.593652725E-1
1.236896079E1,7.936008573E-1,-1.683173180E-1,-2.792348862E-1
1.237693887E1,8.561450243E-1,-1.598463058E-1,-5.639934540E-2
1.238491235E1,9.787286520E-1,-6.737565994E-2,8.679389954E-2
1.239288485E1,1.085624933E0,8.503532410E-2,9.779167175E-2
1.240085880E1,1.128069639E0,1.780567169E-1,1.735687256E-4
1.240883864E1,1.076162457E0,1.097798347E-1,-4.279136658E-3
1.241681575E1,1.010203958E0,1.299295425E-1,-2.465400696E-1
1.242478977E1,8.131278157E-1,2.395772934E-2,-3.586740494E-1
1.243276352E1,5.232694745E-1,-1.130681038E-1,-3.546247482E-1
1.244073942E1,2.774669826E-1,-1.619071960E-1,-4.737033844E-1
1.244871696E1,1.401036978E-1,-1.198363304E-1,-4.515247345E-1
1.245669016E1,1.225364208E-1,6.204700470E-2,-4.800271988E-1
1.246466618E1,1.554178596E-1,1.982250214E-1,-5.501155853E-1
1.247264270E1,1.642517745E-1,4.452109337E-1,-7.210264206E-1
1.248061887E1,1.590093970E-1,2.848691940E-1,-8.778328896E-1
1.248859215E1,5.521132350E-1,5.108404160E-1,-9.671187401E-1
1.249656704E1,6.211930513E-1,7.964730263E-1,-8.225827217E-1
1.250454024E1,5.769376159E-1,9.681277275E-1,-1.065994740E0
1.251251387E1,4.051603079E-1,9.037585258E-1,-1.397747040E0
1.252048614E1,4.955955148E-1,8.881616592E-1,-7.920637131E-1
1.252845673E1,7.006076574E-1,1.094450951E0,1.792240143E-1
1.253643048E1,7.681961060E-1,1.167542934E0,8.589124680E-1
1.254440200E1,5.053018332E-1,1.153033733E0,9.054517746E-1
1.255237590E1,9.764528275E-2,1.103400707E0,8.935117722E-1
1.256034837E1,-2.273797691E-1,1.241112232E0,7.146043777E-1
1.256832110E1,-5.582087040E-1,1.094714165E0,3.528013229E-1
1.257629548E1,-6.956820488E-1,1.079544544E0,8.373069763E-2
1.258426715E1,-6.826071739E-1,1.068438053E0,1.456308365E-1
1.259224008E1,-4.451434016E-1,1.026496887E0,2.425413132E-1
1.260021301E1,1.877065003E-1,1.304467678E0,4.361028671E-1
1.260818454E1,9.563322067E-1,1.853079796E0,8.661804199E-1
1.261615477E1,8.881399632E-1,1.996144295E0,9.252214432E-1
1.262412653E1,2.334479690E-1,1.671602726E0,7.950115204E-1
1.263210059E1,-3.405138254E-1,1.296888351E0,9.586458206E-1
1.264007555E1,-8.443483114E-1,1.143848896E0,1.139218330E0
1.264804977E1,-1.219823122E0,1.417278290E0,2.532386780E-2
1.265602298E1,-1.547515273E0,1.605568886E0,-6.628975868E-1
1.266399653E1,-1.703534722E0,1.487082958E0,-4.441137314E-1
1.267197391E1,-1.647139311E0,1.205583096E0,-1.021013260E-1
1.267995004E1,-1.202365398E0,1.099966049E0,-1.768302917E-2
1.268792876E1,-7.454114556E-1,9.363527298E-1,2.650394440E-1
1.269590286E1,-2.675470710E-1,8.123774529E-1,8.773546219E-1
1.270388001E1,1.562630236E-1,7.287044525E-1,1.606621742E0
1.271186063E1,4.258291721E-1,2.771458626E-1,2.476060867E0
1.271983946E1,5.906171203E-1,-1.303114891E-1,3.043398857E0
1.272781579E1,6.367179751E-1,-6.153278351E-1,3.467926025E0
1.273580168E1,5.760033727E-1,-9.526395798E-1,3.910552979E0
1.274376672E1,6.150970459E-1,-9.136729240E-1,4.166106224E0
1.275174223E1,7.036950588E-1,-8.789253235E-1,4.264623642E0
1.275972086E1,9.674755335E-1,-9.726190567E-1,4.196307182E0
1.276770387E1,1.307675242E0,-1.059527397E0,3.917333603E0
1.277568989E1,1.616766930E0,-1.110742092E0,3.360597610E0
1.278367391E1,1.800329208E0,-1.166570663E0,2.754219055E0
1.279165790E1,1.896227956E0,-1.244851589E0,2.174020767E0
1.279964329E1,1.972816348E0,-1.263496876E0,1.590897560E0
1.280762622E1,1.972959399E0,-1.298176289E0,9.420576096E-1
1.281561336E1,1.987623453E0,-1.257441044E0,2.176818848E-1
1.282359899E1,1.947591782E0,-1.244482040E0,-6.123766899E-1
1.283157844E1,1.839397073E0,-1.295445919E0,-1.195309639E0
1.283955403E1,1.649614096E0,-1.336992741E0,-1.589763165E0
1.284753274E1,1.506454468E0,-1.302162647E0,-2.025663376E0
1.285551122E1,1.262655497E0,-1.289720535E0,-2.366940498E0
1.286348985E1,9.909723997E-1,-1.322587013E0,-2.260136604E0
1.287146692E1,8.695787191E-1,-1.409099102E0,-1.983807087E0
1.287944704E1,1.039092779E0,-1.352393150E0,-1.538258076E0
1.288742450E1,1.446911097E0,-1.252003193E0,-1.043706894E0
1.289540766E1,1.958183765E0,-1.166584015E0,-8.583216667E-1
1.290338946E1,2.480393171E0,-1.042927265E0,-6.615128517E-1
1.291136298E1,2.727436066E0,-9.594740868E-1,-5.621209145E-1
1.291933528E1,2.762544632E0,-9.456043243E-1,-4.686441422E-1
1.292731032E1,2.425282240E0,-1.017381191E0,-3.797998428E-1
1.293528872E1,1.869966745E0,-1.148104191E0,-4.571075439E-1
1.294326743E1,1.187998652E0,-1.310875893E0,-5.079784393E-1
1.295124766E1,3.275194764E-1,-1.460310936E0,-4.878778458E-1
1.295922661E1,-2.696205080E-1,-1.500198841E0,-5.361995697E-1
1.296720442E1,-7.352658510E-1,-1.513036251E0,-6.715912819E-1
1.297517911E1,-8.998860121E-1,-1.500866890E0,-8.910031319E-1
1.298315387E1,-9.494877458E-1,-1.371344566E0,-1.013349056E0
1.299112735E1,-8.269095421E-1,-1.079510689E0,-1.173961639E0
1.299909880E1,-6.880471706E-1,-8.394427299E-1,-1.282663345E0
1.300707340E1,-5.322190523E-1,-7.257766724E-1,-1.422137260E0
1.301504774E1,-3.353907466E-1,-6.129174232E-1,-1.344120979E0
1.302302520E1,-2.265803814E-1,-5.629172325E-1,-1.211535454E0
1.303100204E1,-1.901587248E-1,-5.706396103E-1,-1.034103870E0
1.303897938E1,-1.721115708E-1,-5.610427856E-1,-8.777184486E-1
1.304695673E1,-1.203016639E-1,-5.355496407E-1,-8.803257942E-1
1.305492958E1,-5.064922571E-2,-5.134739876E-1,-9.413599968E-1
1.306290130E1,5.042496324E-2,-5.289611816E-1,-8.689064980E-1
1.307086915E1,1.739344299E-1,-5.440058708E-1,-7.537121773E-1
1.307883747E1,3.303615451E-1,-6.011414528E-1,-6.631121635E-1
1.308680544E1,4.054676592E-1,-6.183643341E-1,-6.070175171E-1
1.309477411E1,4.216460586E-1,-6.052827835E-1,-5.232467651E-1
1.310274012E1,3.839087486E-1,-5.586810112E-1,-2.575216293E-1
1.311071176E1,3.942831159E-1,-5.225296021E-1,-7.438659668E-4
1.311868387E1,4.439459741E-1,-4.933543205E-1,1.761388779E-1
1.312665649E1,5.192217231E-1,-4.270901680E-1,1.432390213E-1
1.313462844E1,5.635089278E-1,-3.323850632E-1,5.674362183E-4
1.314259965E1,6.451657414E-1,-2.095155716E-1,-1.031961441E-1
1.315057102E1,6.340265274E-1,-1.147360802E-1,-3.268785477E-1
1.315854083E1,5.965774059E-1,-4.260873795E-2,-5.272531509E-1
1.316651215E1,5.047585964E-1,-2.469921112E-2,-7.054805756E-1
1.317448110E1,4.382698238E-1,-3.672122955E-3,-6.843748093E-1
1.318245126E1,3.917897940E-1,3.897476196E-2,-5.497274399E-1
1.319042208E1,3.030394018E-1,-1.250410080E-2,-2.962141037E-1
1.319839477E1,2.379659116E-1,-6.017303467E-2,2.024078369E-2
1.320636743E1,2.158427835E-1,-8.277082443E-2,3.437833786E-1
1.321434133E1,1.793547273E-1,-6.727313995E-2,5.746335983E-1
1.322231805E1,1.180747747E-1,-8.234739304E-2,5.652332306E-1
1.323028895E1,1.371646523E-1,-9.434223175E-3,3.641071320E-1
1.323826012E1,1.937687397E-1,7.661676407E-2,1.138648987E-1
1.324623130E1,2.455966771E-1,1.774477959E-1,-2.055692673E-1
1.325420422E1,1.977190673E-1,2.761449814E-1,-6.960144043E-1
1.326217821E1,1.545594037E-1,3.843731880E-1,-1.109791279E0
1.327015239E1,8.691954613E-2,4.951686859E-1,-1.328802109E0
1.327812590E1,4.272884130E-2,5.655584335E-1,-1.219057560E0
1.328610372E1,7.518267632E-2,6.015715599E-1,-1.106895924E0
1.329407907E1,1.208801866E-1,5.844449997E-1,-8.011078835E-1
1.330205387E1,1.561547518E-1,5.364627838E-1,-3.629159927E-1
1.331002891E1,2.251997590E-1,5.270080566E-1,1.086893082E-1
1.331800512E1,3.140660822E-1,4.720406532E-1,5.099878311E-1
1.332598130E1,3.988258541E-1,4.619255066E-1,6.498241425E-1
1.333395876E1,4.987941384E-1,4.723200798E-1,7.535047531E-1
1.334193571E1,6.441599131E-1,5.986585617E-1,8.213644028E-1
1.334991215E1,7.912395000E-1,7.259130478E-1,9.970951080E-1
1.335788567E1,9.065247774E-1,8.583054543E-1,1.228405952E0
1.336586610E1,1.048230290E0,8.680086136E-1,1.390006065E0
1.337383778E1,1.179947019E0,8.842539787E-1,1.530038834E0
1.338180880E1,1.224850655E0,9.077186584E-1,1.566728592E0
1.338978040E1,1.206647515E0,9.248809814E-1,1.719862938E0
1.339775551E1,1.204237700E0,1.135525227E0,1.894813538E0
1.340573083E1,1.127199650E0,1.699022770E0,1.552878380E0
1.341370790E1,8.601266146E-1,2.040710926E0,7.272462845E-1
1.342168825E1,3.326601982E-1,1.842731953E0,-5.422592163E-3
1.342966450E1,-2.850828171E-1,1.191740990E0,-3.436098099E-1
1.343764223E1,-6.553654671E-1,8.924117088E-1,-2.432508469E-1
1.344561641E1,-6.483904123E-1,8.697237968E-1,-3.911972046E-2
1.345359219E1,-3.201205730E-1,8.823146820E-1,4.064474106E-1
1.346156493E1,2.275318503E-1,7.684268951E-1,1.256069183E0
1.346954212E1,9.680442214E-1,4.031915665E-1,2.755216599E0
1.347751762E1,1.522405624E0,1.901149750E-2,3.760472298E0
1.348549454E1,1.874935508E0,-3.507261276E-1,4.409538269E0
1.349347430E1,2.004184246E0,-6.198139191E-1,5.040877342E0
1.350145430E1,1.894921541E0,-6.649289131E-1,5.490494728E0
1.350942977E1,1.617772937E0,-7.647933960E-1,5.786142349E0
1.351740762E1,1.262572050E0,-9.404463768E-1,5.698909760E0
1.352538684E1,9.007559419E-1,-1.117197990E0,5.229960442E0
1.353336325E1,5.128710270E-1,-1.168338299E0,4.059791565E0
1.354134586E1,1.667474508E-1,-1.054756165E0,2.883825302E0
1.354932637E1,-1.969740987E-1,-8.941245079E-1,1.676880836E0
1.355730001E1,-6.302353740E-1,-7.264947891E-1,5.133953094E-1
1.356527645E1,-1.036621094E0,-6.374630928E-1,-3.088674545E-1
1.357325278E1,-1.412960291E0,-6.079144478E-1,-1.018400192E0
1.358123430E1,-1.686907768E0,-5.185027122E-1,-1.776347637E0
1.358921098E1,-1.815288663E0,-4.965043068E-1,-2.238094330E0
1.359719001E1,-1.744473457E0,-5.057134628E-1,-2.415236950E0
1.360516735E1,-1.499625444E0,-5.857267380E-1,-2.364032745E0
1.361314489E1,-1.076835990E0,-6.940746307E-1,-1.922800064E0
1.362112168E1,-5.792630315E-1,-9.367318153E-1,-1.311033249E0
1.362909676E1,-1.718556881E-1,-1.135928631E0,-6.355710030E-1
1.363707559E1,1.722071767E-1,-1.348025799E0,1.150131226E-3
1.364504876E1,4.772628844E-1,-1.542296886E0,4.095411301E-1
1.365302883E1,6.465492249E-1,-1.672660589E0,6.193923950E-1
1.366101028E1,7.110854983E-1,-1.759710550E0,7.749977112E-1
1.366898907E1,7.412279844E-1,-1.861076355E0,8.906173706E-1
1.367696848E1,7.366278172E-1,-1.920105934E0,8.709478378E-1
1.368494579E1,7.695109248E-1,-1.939496517E0,6.699218750E-1
1.369292192E1,7.578566074E-1,-1.904257298E0,2.247962952E-1
1.370090325E1,7.291668057E-1,-1.770236254E0,-3.598937988E-1
1.370888309E1,6.191803813E-1,-1.560918331E0,-9.553446770E-1
1.371686004E1,4.764446616E-1,-1.384379387E0,-1.347315788E0
1.372484149E1,3.391299844E-1,-1.253378391E0,-1.766691685E0
1.373282172E1,3.038277626E-1,-1.198011875E0,-2.048072815E0
1.374080993E1,3.760165274E-1,-1.121395111E0,-2.316641808E0
1.374879798E1,5.864775777E-1,-9.543972015E-1,-2.449147701E0
1.375678755E1,8.099303246E-1,-6.724867821E-1,-2.450429440E0
1.376477586E1,1.018732190E0,-4.086952209E-1,-2.388204098E0
1.377276262E1,1.117756367E0,-2.492938042E-1,-2.181007385E0
1.378074950E1,1.103728414E0,-2.194509506E-1,-1.827869892E0
1.378873540E1,8.370110989E-1,-3.089785576E-1,-1.630964756E0
1.379671602E1,5.012906790E-1,-3.706941605E-1,-1.393381119E0
1.380469520E1,1.762505770E-1,-3.715324402E-1,-1.138873100E0
1.381267403E1,-1.883753538E-1,-3.514866829E-1,-7.946715355E-1
1.382065016E1,-3.585886359E-1,-3.691201210E-1,-4.797730446E-1
1.382862723E1,-3.913021088E-1,-3.921976089E-1,-2.076063156E-1
1.383660559E1,-2.872329354E-1,-3.580851555E-1,-2.227230072E-1
1.384458544E1,-1.964617372E-1,-3.144645691E-1,-3.003635406E-1
1.385256626E1,-3.294378519E-2,-2.229108810E-1,-1.676692963E-1
1.386054657E1,5.156677961E-2,-1.792931557E-1,-1.595878601E-2
1.386852356E1,1.681981087E-1,-1.700286865E-1,1.362390518E-1
1.387649489E1,3.460575640E-1,-1.657743454E-1,3.460111618E-1
1.388447313E1,4.874877334E-1,-1.100063324E-1,3.939781189E-1
1.389244918E1,6.309212446E-1,-5.486297607E-2,2.654047012E-1
1.390042258E1,6.466034055E-1,2.322006226E-2,-1.556110382E-2
1.390839868E1,5.885775685E-1,6.133317947E-2,-2.520561218E-1
1.391637446E1,5.474662781E-1,1.167092323E-1,-5.732626915E-1
1.392435110E1,4.640137553E-1,1.369514465E-1,-9.938902855E-1
1.393232887E1,4.051749408E-1,1.935601234E-1,-1.097148895E0
1.394030669E1,3.712335229E-1,2.052001953E-1,-1.041076183E0
1.394828192E1,3.159130812E-1,2.090167999E-1,-1.021106243E0
1.395625118E1,2.502139509E-1,1.442828178E-1,-1.277524948E0
1.396422344E1,1.375334859E-1,1.563196182E-1,-1.342428207E0
1.397219614E1,1.957106590E-2,2.501893044E-1,-1.096405029E0
1.398016973E1,-9.836834669E-2,3.603262901E-1,-1.004851818E0
1.398814270E1,-2.634497881E-1,4.526948929E-1,-7.992177010E-1
1.399611508E1,-3.614341021E-1,5.318598747E-1,-8.576960564E-1
1.400409008E1,-4.431000948E-1,5.688056946E-1,-8.691124916E-1
1.401207059E1,-4.997686148E-1,5.451045036E-1,-7.382607460E-1
1.402004852E1,-5.416676402E-1,5.363736153E-1,-5.651063919E-1
1.402802614E1,-5.417844653E-1,5.456557274E-1,-3.486413956E-1
1.403600106E1,-4.176553488E-1,5.446557999E-1,-1.129922867E-1
1.404397548E1,-2.493968606E-1,5.351433754E-1,1.439542770E-1
1.405194723E1,-1.410174370E-2,4.634981155E-1,1.881170273E-1
1.405991950E1,1.858501136E-1,4.262609482E-1,2.778530121E-1
1.406788774E1,3.657803535E-1,4.005856514E-1,1.922798157E-1
1.407585825E1,4.937954843E-1,4.606642723E-1,2.508020401E-1
1.408382731E1,5.296402574E-1,5.022382736E-1,2.805118561E-1
1.409179798E1,5.702880621E-1,5.395903587E-1,3.772926331E-1
1.409976926E1,5.801947117E-1,5.194997787E-1,4.120445251E-1
1.410773688E1,5.224034786E-1,4.746890068E-1,5.338163376E-1
1.411570665E1,4.103550911E-1,4.520840645E-1,6.282539368E-1
1.412368126E1,3.735412359E-1,4.188551903E-1,8.430538177E-1
1.413165044E1,3.448277116E-1,3.241477013E-1,1.347809792E0
1.413962149E1,4.068770707E-1,5.830950737E-1,1.621695518E0
1.414759602E1,3.264600039E-1,1.166096210E0,1.612789154E0
1.415556594E1,1.910736561E-1,1.733096600E0,1.364133835E0
1.416354118E1,1.714930236E-1,1.717477798E0,9.932441711E-1
1.417151360E1,6.113618612E-2,1.056525707E0,8.227510452E-1
1.417948352E1,2.402143776E-1,6.406054497E-1,9.357500076E-1
1.418745458E1,3.742204010E-1,7.559161186E-1,8.746738434E-1
1.419542215E1,4.591704607E-1,1.045719147E0,9.250340462E-1
1.420339008E1,5.495793223E-1,1.127171993E0,1.011441708E0
1.421135891E1,6.718606949E-1,6.541175842E-1,1.441486359E0
1.421932762E1,7.714445591E-1,-1.755938530E-1,2.199991226E0
1.422730024E1,9.170340300E-1,-9.192762375E-1,3.417174339E0
1.423526864E1,1.081445098E0,-1.163821220E0,4.305611610E0
1.424323918E1,1.197487116E0,-1.040834904E0,4.803285599E0
1.425120798E1,1.261950493E0,-9.064726830E-1,5.024454117E0
1.425918001E1,1.341688871E0,-9.199662209E-1,4.963151932E0
1.426715508E1,1.388215065E0,-1.037429810E0,4.734842300E0
1.427512485E1,1.322963715E0,-1.224814415E0,4.209652901E0
1.428309270E1,1.311733007E0,-1.296472549E0,3.193598747E0
1.429106176E1,1.302422285E0,-1.210203171E0,1.986014366E0
1.429903477E1,1.286871433E0,-1.073503971E0,1.108945847E0
1.430700493E1,1.231821060E0,-1.068185329E0,2.479104996E-1
1.431497489E1,1.189074636E0,-9.676470757E-1,-7.976160049E-1
1.432294348E1,1.122399330E0,-9.024367332E-1,-1.465128899E0
1.433091309E1,1.078672767E0,-7.942228317E-1,-2.319845676E0
1.433888305E1,1.147412777E0,-6.948156357E-1,-2.649241447E0
1.434685485E1,1.241907835E0,-6.476035118E-1,-2.894832611E0
1.435482883E1,1.500675678E0,-6.468100548E-1,-2.741363049E0
1.436280590E1,1.781429291E0,-6.468062401E-1,-2.584539413E0
1.437077227E1,1.987757325E0,-6.375422478E-1,-2.285800934E0
1.437874329E1,2.149104357E0,-7.826557159E-1,-1.609994888E0
1.438671411E1,2.106959343E0,-9.532823563E-1,-6.059780121E-1
1.439468251E1,2.102419853E0,-1.118859768E0,1.394910812E-1
1.440264997E1,2.157819748E0,-1.204631329E0,6.132783890E-1
1.441061755E1,2.240429401E0,-1.284559250E0,1.104168892E0
1.441858340E1,2.175504923E0,-1.319680214E0,1.471384048E0
1.442655075E1,2.102403879E0,-1.276537418E0,1.585591316E0
1.443452223E1,2.026385546E0,-1.180201054E0,1.653412819E0
1.444249450E1,1.844147682E0,-1.070616722E0,1.393499374E0
1.445046770E1,1.623558879E0,-1.037296295E0,1.029943466E0
1.445845008E1,1.391893625E0,-1.001339436E0,4.654283524E-1
1.446643266E1,1.127196312E0,-9.751234055E-1,-1.099138260E-1
1.447441637E1,7.784656882E-1,-9.573583603E-1,-5.054984093E-1
1.448239782E1,4.059609771E-1,-9.711961746E-1,-6.498818398E-1
1.449037856E1,1.385948062E-1,-9.305634499E-1,-1.127136707E0
1.449836051E1,6.363061070E-2,-8.464279175E-1,-1.781568050E0
1.450633887E1,1.435110867E-1,-7.123527527E-1,-2.330525875E0
1.451431794E1,1.968798339E-1,-6.113414764E-1,-2.370893478E0
1.452228688E1,3.298614919E-1,-5.426731110E-1,-2.152235985E0
1.453025669E1,4.832438231E-1,-5.268893242E-1,-1.687831879E0
1.453822798E1,6.231164336E-1,-5.688986778E-1,-1.652815819E0
1.454619587E1,7.253297567E-1,-6.103534698E-1,-1.698311806E0
1.455416262E1,8.505346179E-1,-5.947852135E-1,-1.598616600E0
1.456213637E1,9.299476147E-1,-6.084141731E-1,-1.578823566E0
1.457010926E1,1.001972675E0,-6.506886482E-1,-1.414263725E0
1.457808325E1,1.091896892E0,-6.846261024E-1,-1.252327442E0
1.458605571E1,1.149462581E0,-6.721253395E-1,-1.154983997E0
1.459402493E1,1.242373347E0,-6.515936852E-1,-1.055074215E0
1.460199731E1,1.347987056E0,-6.051783562E-1,-8.270678520E-1
1.460997044E1,1.443018198E0,-5.344271660E-1,-6.709327698E-1
1.461794231E1,1.431972384E0,-4.580206871E-1,-4.624781609E-1
1.462591309E1,1.306085825E0,-3.916635513E-1,-3.682975769E-1
1.463387969E1,1.180254102E0,-3.011937141E-1,-4.415068626E-1
1.464185313E1,1.062245488E0,-2.209839821E-1,-3.798837662E-1
1.464982809E1,9.526263475E-1,-1.900954247E-1,-4.129428864E-1
1.465780188E1,8.653305769E-1,-1.489467621E-1,-1.510295868E-1
1.466577712E1,7.848198414E-1,-5.454015732E-2,-2.406206131E-1
1.467374965E1,7.249693871E-1,4.244232178E-2,-3.096580505E-1
1.468172223E1,6.651759744E-1,4.485464096E-2,-1.705551147E-1
1.468969688E1,6.574540138E-1,-4.389762878E-3,-2.204208374E-1
1.469767274E1,6.270980239E-1,-9.218692780E-3,-5.407719612E-1
1.470564696E1,6.361767054E-1,9.107923508E-2,-9.183640480E-1
1.471361938E1,6.307874918E-1,2.361111641E-1,-1.134268761E0
1.472159063E1,7.296296358E-1,3.802318573E-1,-1.094307899E0
1.472956141E1,7.814495564E-1,4.419655800E-1,-1.008989334E0
1.473753505E1,8.735709190E-1,4.569282532E-1,-8.811926842E-1
1.474550778E1,9.096668959E-1,4.808702469E-1,-1.021014214E0
1.475347821E1,9.279420376E-1,4.709739685E-1,-1.021948814E0
1.476145032E1,8.604493141E-1,4.704856873E-1,-8.362774849E-1
1.476942172E1,7.843709588E-1,5.023851395E-1,-6.261372566E-1
1.477739212E1,8.158677816E-1,4.764380455E-1,-4.877147675E-1
1.478536583E1,8.997906446E-1,4.314322472E-1,-4.690694809E-1
1.479333610E1,9.921108484E-1,4.344244003E-1,-3.883161545E-1
1.480131048E1,1.051353812E0,4.761056900E-1,-1.449747086E-1
1.480928301E1,1.094673872E0,6.419038773E-1,7.863998413E-3
1.481725454E1,1.159180880E0,8.222784996E-1,-1.168632507E-2
1.482522376E1,1.235361218E0,9.500999451E-1,1.699466705E-1
1.483319583E1,1.242023945E0,1.007480621E0,4.133825302E-1
1.484116610E1,1.145074368E0,1.050718784E0,4.799699783E-1
1.484913950E1,9.813373089E-1,1.054911613E0,5.330829620E-1
1.485711512E1,7.679526210E-1,1.061346531E0,5.642318726E-1
1.486509020E1,5.644183159E-1,1.083970547E0,6.070165634E-1
1.487306290E1,4.360260069E-1,1.059700966E0,6.187553406E-1
1.488103997E1,3.917622268E-1,1.047009468E0,6.849002838E-1
1.488901801E1,4.451968670E-1,1.031829357E0,7.668809891E-1
1.489699231E1,5.397920609E-1,1.014063835E0,9.605884552E-1
1.490496950E1,5.286119580E-1,8.811559677E-1,1.044328690E0
1.491294727E1,3.777069449E-1,6.761488914E-1,1.310181618E0
1.492092376E1,2.644612193E-1,6.937522888E-1,1.692574501E0
1.492890212E1,2.532148361E-1,8.931488991E-1,1.934830666E0
1.493687551E1,3.159739971E-1,1.300720692E0,1.617750168E0
1.494484852E1,1.369146109E-1,1.461179733E0,6.886272430E-1
1.495282422E1,-3.097385168E-1,1.145281315E0,1.530523300E-1
1.496079587E1,-8.020287156E-1,5.912728310E-1,6.991958618E-2
1.496877325E1,-9.803497791E-1,2.768478394E-1,2.355775833E-1
1.497674798E1,-8.012827635E-1,4.002680779E-1,6.348295212E-1
1.498472735E1,-2.961264253E-1,5.094165802E-1,1.376574039E0
1.499270020E1,2.483938932E-1,3.065266609E-1,2.117158890E0
1.500066973E1,6.292228699E-1,-1.716413498E-1,2.891437531E0
1.500864423E1,1.001036406E0,-7.339549065E-1,3.436435699E0
1.501661313E1,1.163531303E0,-1.129895687E0,3.687471390E0
1.502458344E1,1.252171755E0,-1.328128338E0,3.895160675E0
1.503255774E1,1.247825503E0,-1.355132580E0,3.946326256E0
1.504053024E1,1.198969245E0,-1.344367027E0,3.877389908E0
1.504850458E1,1.013279080E0,-1.400788307E0,3.528450012E0
1.505647618E1,7.838814259E-1,-1.483109474E0,3.005896568E0
1.506445344E1,4.901176691E-1,-1.443451881E0,2.334028244E0
1.507242876E1,8.571809530E-2,-1.338325977E0,1.348794937E0
1.508040282E1,-1.870391369E-1,-1.182603359E0,7.127380371E-1
1.508837735E1,-3.378539681E-1,-9.085273743E-1,-3.286409378E-2
1.509634856E1,-3.633852601E-1,-6.367216110E-1,-4.456243515E-1
1.510431911E1,-3.467297554E-1,-5.011906624E-1,-7.490944862E-1
1.511229434E1,-2.564895153E-1,-4.607381821E-1,-9.452648163E-1
1.512027137E1,-1.789632440E-1,-5.050854683E-1,-9.864439964E-1
1.512824794E1,-9.814691544E-2,-6.061677933E-1,-9.678325653E-1
1.513622618E1,2.256929874E-3,-7.225856781E-1,-8.305659294E-1
1.514420426E1,8.287674189E-2,-8.214697838E-1,-6.090431213E-1
1.515218278E1,1.187754273E-1,-9.755163193E-1,-4.080395699E-1
1.516016176E1,8.106881380E-2,-1.114592075E0,-1.640691757E-1
1.516813942E1,-5.554115772E-2,-1.258750916E0,-1.351733208E-1
1.517611731E1,-1.293942928E-1,-1.369638920E0,3.285360336E-2
1.518409262E1,-1.404956579E-1,-1.468083382E0,3.316335678E-1
1.519206786E1,-2.900689840E-2,-1.444061756E0,3.156967163E-1
1.520004762E1,1.927243471E-1,-1.340942860E0,2.052173615E-1
1.520802520E1,4.108965099E-1,-1.349924564E0,1.676487923E-1
1.521600493E1,6.421763301E-1,-1.348871708E0,1.713724136E-1
1.522398219E1,8.284678459E-1,-1.328909397E0,-5.132532120E-2
1.523196235E1,9.493420124E-1,-1.282636166E0,-4.401636124E-1
1.523994946E1,1.074283481E0,-1.237058163E0,-8.668661118E-1
1.524793204E1,1.204515696E0,-1.152122974E0,-1.083566189E0
1.525591184E1,1.284215689E0,-1.061726570E0,-1.056334972E0
1.526389266E1,1.304633617E0,-1.028132439E0,-1.278307915E0
1.527187446E1,1.341061711E0,-9.782867432E-1,-1.491909981E0
1.527985563E1,1.277456284E0,-9.494152069E-1,-1.774648190E0
1.528783747E1,1.139373541E0,-8.932657242E-1,-1.786664486E0
1.529582051E1,9.861401320E-1,-8.447155952E-1,-1.694405079E0
1.530380344E1,8.468161821E-1,-8.030514717E-1,-1.498335361E0
1.531178368E1,6.864952445E-1,-7.502865791E-1,-1.259971619E0
1.531976501E1,5.674881935E-1,-6.586103439E-1,-1.002577782E0
1.532774540E1,4.187628925E-1,-5.509109497E-1,-1.042831898E0
1.533572602E1,2.573511600E-1,-4.842267036E-1,-1.113067150E0
1.534371075E1,7.008826733E-2,-5.290727615E-1,-1.042155743E0
1.535169274E1,-1.124988794E-1,-5.244455338E-1,-7.285580635E-1
1.535967481E1,-1.662359834E-1,-4.870023727E-1,-4.197030067E-1
1.536765590E1,-1.163990498E-1,-4.859056473E-1,-1.525821686E-1
1.537563130E1,2.840197086E-2,-4.116020203E-1,5.412769318E-2
1.538361145E1,2.129307389E-1,-3.169298172E-1,5.231666565E-2
1.539159360E1,3.225421906E-1,-2.191309929E-1,-1.449575424E-1
1.539957477E1,4.058066607E-1,-1.649479866E-1,-2.223806381E-1
1.540755700E1,4.827269316E-1,-6.714248657E-2,-2.332468033E-1
1.541554196E1,5.741381645E-1,7.449960709E-2,-3.547067642E-1
1.542352114E1,6.848053932E-1,2.167711258E-1,-4.957098961E-1
1.543150298E1,7.722642422E-1,2.885041237E-1,-6.374888420E-1
1.543948430E1,8.648509383E-1,3.180985451E-1,-7.176051140E-1
1.544746540E1,8.817529678E-1,2.867922783E-1,-7.937235832E-1
1.545544762E1,8.751377463E-1,2.283163071E-1,-7.511105537E-1
1.546343212E1,8.158745170E-1,1.799259186E-1,-6.178078651E-1
1.547141340E1,8.044139147E-1,1.161818504E-1,-4.311208725E-1
1.547939180E1,8.640992045E-1,1.224770546E-1,-2.815542221E-1
1.548737239E1,9.868551493E-1,1.466073990E-1,-2.507019043E-1
1.549535407E1,1.086089373E0,1.937885284E-1,-2.862310410E-1
1.550333766E1,1.127445221E0,2.736196518E-1,-3.866386414E-2
1.551132247E1,1.068989635E0,3.375649452E-1,1.812639236E-1
1.551930692E1,1.011995316E0,4.319391251E-1,3.267641068E-1
1.552729048E1,8.689069748E-1,4.759202003E-1,3.063554764E-1
1.553527169E1,7.394491434E-1,4.501566887E-1,3.834638596E-1
1.554325559E1,6.166297197E-1,3.741664886E-1,4.287586212E-1
1.555123688E1,4.577428699E-1,3.069391251E-1,3.071708679E-1
1.555921782E1,3.134330511E-1,2.868394852E-1,1.956863403E-1
1.556720032E1,2.009937763E-1,2.992811203E-1,2.188234329E-1
1.557518602E1,1.867813468E-1,3.348693848E-1,3.668441772E-1
1.558316864E1,2.517299056E-1,3.972792625E-1,5.926284790E-1
1.559115555E1,2.656743824E-1,3.717823029E-1,8.289737701E-1
1.559913962E1,2.614798546E-1,3.339509964E-1,1.047837257E0
1.560712329E1,2.867491841E-1,3.059959412E-1,1.240839005E0
1.561510794E1,3.385721743E-1,3.116292953E-1,1.389167786E0
1.562309200E1,4.474709332E-1,3.167243004E-1,1.431170464E0
1.563108044E1,6.249091625E-1,3.512520790E-1,1.265610695E0
1.563906809E1,8.033686280E-1,4.590301514E-1,1.136228561E0
1.564705614E1,8.613754511E-1,7.595243454E-1,1.043400764E0
1.565504548E1,7.623544931E-1,1.146875381E0,7.146863937E-1
1.566303180E1,5.764952302E-1,1.369013786E0,1.105427742E-1
1.567101844E1,3.471434712E-1,1.071494579E0,-4.326210022E-1
1.567899833E1,2.395838499E-1,6.667838097E-1,-4.880366325E-1
1.568697868E1,2.864201069E-1,6.236338615E-1,-2.982969284E-1
1.569496458E1,3.548524082E-1,9.060235023E-1,-3.153429031E-1
1.570294993E1,3.957239687E-1,1.069381237E0,-2.750301361E-2
1.571093399E1,3.957208693E-1,9.643068314E-1,2.606134415E-1
1.571891918E1,3.290367126E-1,4.116592407E-1,1.053452492E0
1.572690559E1,4.137569070E-1,-2.650737762E-1,2.309963703E0
1.573489071E1,6.742236614E-1,-9.139242172E-1,3.552837372E0
1.574287630E1,1.030148506E0,-1.145443916E0,4.649287224E0
1.575086352E1,1.474260688E0,-1.086016655E0,5.661562920E0
1.575884856E1,1.732060432E0,-1.050454617E0,6.212069511E0
1.576683528E1,1.877600908E0,-1.156124592E0,6.434444427E0
1.577482110E1,2.061199903E0,-1.321189880E0,6.228828430E0
1.578280766E1,2.230114222E0,-1.445886135E0,5.638542175E0
1.579079094E1,2.274108410E0,-1.401000977E0,4.496102333E0
1.579877508E1,2.149318457E0,-1.200259686E0,2.897274971E0
1.580675489E1,1.874078512E0,-1.019637108E0,1.501025200E0
1.581473840E1,1.449056387E0,-9.077115059E-1,-4.779338837E-2
1.582272602E1,1.114090919E0,-8.812904358E-1,-1.160216331E0
1.583071364E1,8.233864903E-1,-8.473005295E-1,-2.018365860E0
1.583870298E1,5.369086266E-1,-8.447880745E-1,-2.930830479E0
1.584669067E1,2.834009230E-1,-9.597463608E-1,-3.499788761E0
1.585468114E1,1.197824180E-1,-1.011018276E0,-3.820679665E0
1.586266973E1,1.431147754E-1,-1.087964058E0,-3.613516331E0
1.587065653E1,3.801017404E-1,-1.085033894E0,-2.969447613E0
1.587863962E1,8.782900572E-1,-1.103686333E0,-1.988145351E0
1.588662094E1,1.381825089E0,-1.172355652E0,-9.209613800E-1
1.589460618E1,1.794879913E0,-1.259394646E0,-1.458511353E-1
1.590259219E1,2.139450550E0,-1.389759541E0,4.323792458E-1
1.591057618E1,2.200797558E0,-1.470323086E0,4.993133545E-1
1.591856571E1,2.065445900E0,-1.526611805E0,4.675817490E-1
1.592655188E1,1.809131622E0,-1.576827526E0,4.464912415E-1
1.593454040E1,1.566157103E0,-1.626759052E0,5.324287415E-1
